Data from paracetamol_Absorbance_14-54-05-546.txt Node
Date: Thu Feb 15 14:54:05 GMT 2018
User: darren.whitaker
Spectrometer: S03056
Trigger mode: 0
Resolution mode: 1024 pixels
Integration Time (sec): 1.000000E0
Scans to average: 1
Nonlinearity correction enabled: false
Boxcar width: 0
Baseline correction enabled: true
XAxis mode: Wavelengths
Number of Pixels in Spectrum: 1024
>>>>>Begin Spectral Data<<<<<
184.595	0.02
185.045	0.13
185.495	0.26
185.945	0.07
186.395	0.11
186.845	0.32
187.295	0.12
187.745	0.05
188.195	0.2
188.646	0.12
189.096	0.07
189.546	0.12
189.997	0.13
190.447	0.11
190.898	0.04
191.348	0.14
191.799	0.07
192.249	-0.02
192.7	0.12
193.151	0.18
193.602	0.11
194.053	-0.07
194.504	0.08
194.955	0.15
195.406	0.15
195.857	0.13
196.308	0.14
196.759	0.11
197.21	-0
197.662	0.08
198.113	0.14
198.564	-0.04
199.016	0.17
199.467	0.14
199.919	0.02
200.371	0.1
200.822	0.2
201.274	0.14
201.726	0.15
202.178	0.1
202.63	0.15
203.082	0.14
203.534	0.11
203.986	0.08
204.438	0.21
204.89	0.26
205.342	0.21
205.794	0.12
206.247	0.21
206.699	0.11
207.152	0.16
207.604	0.14
208.057	0.15
208.509	0.15
208.962	0.15
209.415	0.14
209.867	0.18
210.32	0.3
210.773	0.26
211.226	0.14
211.679	0.22
212.132	0.17
212.585	0.26
213.038	0.19
213.491	0.14
213.944	0.29
214.398	0.21
214.851	0.21
215.304	0.21
215.758	0.24
216.211	0.22
216.665	0.22
217.119	0.2
217.572	0.24
218.026	0.3
218.48	0.23
218.933	0.24
219.387	0.3
219.841	0.25
220.295	0.26
220.749	0.27
221.203	0.29
221.657	0.28
222.112	0.32
222.566	0.31
223.02	0.32
223.474	0.35
223.929	0.34
224.383	0.34
224.838	0.34
225.292	0.38
225.747	0.39
226.202	0.36
226.656	0.38
227.111	0.38
227.566	0.4
228.021	0.43
228.476	0.4
228.931	0.41
229.386	0.43
229.841	0.43
230.296	0.44
230.751	0.45
231.206	0.45
231.661	0.45
232.117	0.46
232.572	0.47
233.027	0.49
233.483	0.48
233.938	0.5
234.394	0.5
234.85	0.5
235.305	0.5
235.761	0.52
236.217	0.52
236.673	0.54
237.129	0.53
237.585	0.54
238.041	0.54
238.497	0.55
238.953	0.56
239.409	0.57
239.865	0.56
240.321	0.57
240.778	0.57
241.234	0.58
241.69	0.58
242.147	0.58
242.603	0.58
243.06	0.59
243.517	0.58
243.973	0.6
244.43	0.59
244.887	0.59
245.343	0.58
245.8	0.59
246.257	0.58
246.714	0.58
247.171	0.58
247.628	0.58
248.085	0.58
248.543	0.58
249	0.57
249.457	0.56
249.914	0.56
250.372	0.55
250.829	0.55
251.287	0.54
251.744	0.53
252.202	0.53
252.659	0.53
253.117	0.51
253.575	0.51
254.033	0.5
254.491	0.5
254.948	0.48
255.406	0.48
255.864	0.46
256.322	0.45
256.78	0.45
257.239	0.44
257.697	0.43
258.155	0.43
258.613	0.41
259.072	0.4
259.53	0.39
259.988	0.39
260.447	0.38
260.906	0.37
261.364	0.36
261.823	0.35
262.281	0.34
262.74	0.33
263.199	0.32
263.658	0.32
264.117	0.31
264.576	0.3
265.035	0.29
265.494	0.28
265.953	0.28
266.412	0.27
266.871	0.26
267.33	0.26
267.79	0.25
268.249	0.24
268.708	0.24
269.168	0.24
269.627	0.23
270.087	0.23
270.546	0.22
271.006	0.22
271.466	0.21
271.926	0.21
272.385	0.2
272.845	0.2
273.305	0.2
273.765	0.2
274.225	0.2
274.685	0.19
275.145	0.19
275.605	0.19
276.065	0.18
276.526	0.18
276.986	0.18
277.446	0.18
277.907	0.17
278.367	0.18
278.828	0.17
279.288	0.17
279.749	0.17
280.209	0.17
280.67	0.16
281.131	0.17
281.592	0.16
282.052	0.16
282.513	0.15
282.974	0.16
283.435	0.16
283.896	0.15
284.357	0.15
284.818	0.15
285.28	0.14
285.741	0.14
286.202	0.14
286.663	0.13
287.125	0.14
287.586	0.13
288.048	0.13
288.509	0.13
288.971	0.13
289.432	0.12
289.894	0.12
290.356	0.12
290.818	0.12
291.279	0.11
291.741	0.11
292.203	0.11
292.665	0.11
293.127	0.1
293.589	0.1
294.051	0.1
294.513	0.1
294.976	0.09
295.438	0.09
295.9	0.09
296.363	0.09
296.825	0.08
297.287	0.08
297.75	0.08
298.212	0.07
298.675	0.07
299.138	0.07
299.6	0.07
300.063	0.07
300.526	0.07
300.989	0.06
301.452	0.06
301.914	0.06
302.377	0.06
302.84	0.06
303.304	0.06
303.767	0.06
304.23	0.05
304.693	0.05
305.156	0.05
305.62	0.05
306.083	0.05
306.546	0.05
307.01	0.05
307.473	0.05
307.937	0.05
308.4	0.05
308.864	0.05
309.328	0.05
309.792	0.05
310.255	0.05
310.719	0.05
311.183	0.05
311.647	0.05
312.111	0.05
312.575	0.05
313.039	0.05
313.503	0.05
313.967	0.05
314.432	0.05
314.896	0.05
315.36	0.05
315.825	0.05
316.289	0.05
316.753	0.05
317.218	0.05
317.683	0.05
318.147	0.05
318.612	0.05
319.076	0.05
319.541	0.05
320.006	0.05
320.471	0.05
320.936	0.05
321.401	0.05
321.866	0.05
322.331	0.05
322.796	0.05
323.261	0.05
323.726	0.05
324.191	0.05
324.656	0.05
325.122	0.05
325.587	0.05
326.053	0.05
326.518	0.05
326.983	0.05
327.449	0.05
327.915	0.05
328.38	0.05
328.846	0.05
329.312	0.05
329.777	0.05
330.243	0.05
330.709	0.05
331.175	0.05
331.641	0.05
332.107	0.05
332.573	0.05
333.039	0.05
333.505	0.05
333.972	0.05
334.438	0.05
334.904	0.05
335.37	0.05
335.837	0.05
336.303	0.05
336.77	0.05
337.236	0.05
337.703	0.05
338.169	0.05
338.636	0.05
339.103	0.05
339.569	0.05
340.036	0.05
340.503	0.05
340.97	0.05
341.437	0.05
341.904	0.05
342.371	0.05
342.838	0.05
343.305	0.05
343.772	0.05
344.24	0.05
344.707	0.05
345.174	0.05
345.641	0.05
346.109	0.05
346.576	0.05
347.044	0.05
347.511	0.05
347.979	0.05
348.447	0.05
348.914	0.05
349.382	0.05
349.85	0.05
350.318	0.05
350.785	0.05
351.253	0.05
351.721	0.05
352.189	0.05
352.657	0.05
353.125	0.05
353.594	0.05
354.062	0.05
354.53	0.05
354.998	0.05
355.466	0.05
355.935	0.05
356.403	0.05
356.872	0.05
357.34	0.05
357.809	0.05
358.277	0.05
358.746	0.05
359.215	0.05
359.683	0.05
360.152	0.05
360.621	0.05
361.09	0.05
361.559	0.05
362.028	0.05
362.497	0.05
362.966	0.05
363.435	0.05
363.904	0.05
364.373	0.05
364.842	0.05
365.312	0.05
365.781	0.05
366.25	0.05
366.72	0.05
367.189	0.05
367.658	0.05
368.128	0.05
368.598	0.05
369.067	0.05
369.537	0.05
370.007	0.05
370.476	0.05
370.946	0.05
371.416	0.05
371.886	0.05
372.356	0.05
372.826	0.05
373.296	0.05
373.766	0.05
374.236	0.05
374.706	0.05
375.176	0.05
375.647	0.05
376.117	0.05
376.587	0.05
377.058	0.05
377.528	0.05
377.998	0.05
378.469	0.05
378.94	0.05
379.41	0.05
379.881	0.05
380.351	0.05
380.822	0.05
381.293	0.05
381.764	0.05
382.235	0.05
382.706	0.05
383.177	0.05
383.648	0.05
384.119	0.05
384.59	0.05
385.061	0.05
385.532	0.05
386.003	0.05
386.474	0.05
386.946	0.05
387.417	0.05
387.888	0.05
388.36	0.05
388.831	0.05
389.303	0.05
389.774	0.05
390.246	0.05
390.718	0.05
391.189	0.05
391.661	0.05
392.133	0.05
392.605	0.05
393.077	0.05
393.549	0.05
394.021	0.05
394.493	0.05
394.965	0.05
395.437	0.05
395.909	0.05
396.381	0.05
396.853	0.05
397.325	0.05
397.798	0.05
398.27	0.05
398.743	0.05
399.215	0.05
399.687	0.05
400.16	0.05
400.633	0.05
401.105	0.05
401.578	0.05
402.051	0.05
402.523	0.05
402.996	0.05
403.469	0.05
403.942	0.05
404.415	0.05
404.888	0.05
405.361	0.05
405.834	0.05
406.307	0.05
406.78	0.05
407.253	0.05
407.726	0.05
408.199	0.05
408.673	0.05
409.146	0.05
409.619	0.05
410.093	0.05
410.566	0.05
411.04	0.05
411.513	0.05
411.987	0.05
412.461	0.05
412.934	0.05
413.408	0.05
413.882	0.05
414.356	0.05
414.829	0.05
415.303	0.05
415.777	0.05
416.251	0.05
416.725	0.05
417.199	0.05
417.673	0.05
418.148	0.05
418.622	0.05
419.096	0.05
419.57	0.05
420.045	0.05
420.519	0.05
420.993	0.05
421.468	0.05
421.942	0.05
422.417	0.05
422.891	0.05
423.366	0.05
423.841	0.05
424.315	0.06
424.79	0.05
425.265	0.05
425.74	0.05
426.215	0.05
426.689	0.05
427.164	0.05
427.639	0.05
428.114	0.05
428.589	0.05
429.065	0.05
429.54	0.06
430.015	0.05
430.49	0.06
430.965	0.05
431.441	0.05
431.916	0.05
432.392	0.06
432.867	0.05
433.342	0.05
433.818	0.05
434.294	0.06
434.769	0.05
435.245	0.05
435.721	0.05
436.196	0.05
436.672	0.06
437.148	0.05
437.624	0.05
438.1	0.05
438.576	0.05
439.052	0.05
439.528	0.06
440.004	0.06
440.48	0.06
440.956	0.06
441.432	0.05
441.908	0.06
442.385	0.06
442.861	0.06
443.337	0.06
443.814	0.06
444.29	0.06
444.767	0.06
445.243	0.06
445.72	0.06
446.196	0.05
446.673	0.06
447.15	0.06
447.626	0.06
448.103	0.06
448.58	0.06
449.057	0.05
449.534	0.06
450.01	0.06
450.487	0.06
450.964	0.06
451.442	0.06
451.919	0.06
452.396	0.06
452.873	0.06
453.35	0.06
453.827	0.06
454.305	0.06
454.782	0.06
455.259	0.06
455.737	0.06
456.214	0.05
456.692	0.06
457.169	0.06
457.647	0.06
458.124	0.06
458.602	0.06
459.08	0.06
459.557	0.06
460.035	0.06
460.513	0.06
460.991	0.06
461.469	0.06
461.947	0.06
462.425	0.06
462.903	0.06
463.381	0.06
463.859	0.06
464.337	0.06
464.815	0.06
465.293	0.06
465.772	0.06
466.25	0.06
466.728	0.06
467.207	0.06
467.685	0.06
468.164	0.06
468.642	0.06
469.121	0.06
469.599	0.06
470.078	0.06
470.556	0.06
471.035	0.06
471.514	0.06
471.993	0.06
472.471	0.06
472.95	0.06
473.429	0.06
473.908	0.06
474.387	0.06
474.866	0.06
475.345	0.06
475.824	0.06
476.303	0.06
476.782	0.06
477.262	0.06
477.741	0.06
478.22	0.06
478.7	0.06
479.179	0.06
479.658	0.06
480.138	0.06
480.617	0.06
481.097	0.06
481.576	0.06
482.056	0.06
482.535	0.06
483.015	0.06
483.495	0.06
483.975	0.06
484.454	0.06
484.934	0.06
485.414	0.06
485.894	0.06
486.374	0.06
486.854	0.06
487.334	0.06
487.814	0.06
488.294	0.06
488.774	0.06
489.254	0.06
489.735	0.06
490.215	0.06
490.695	0.06
491.176	0.06
491.656	0.06
492.136	0.06
492.617	0.06
493.097	0.06
493.578	0.06
494.058	0.06
494.539	0.06
495.02	0.06
495.5	0.06
495.981	0.06
496.462	0.06
496.943	0.06
497.423	0.06
497.904	0.06
498.385	0.06
498.866	0.06
499.347	0.06
499.828	0.06
500.309	0.06
500.79	0.06
501.271	0.06
501.753	0.06
502.234	0.06
502.715	0.06
503.196	0.06
503.678	0.06
504.159	0.06
504.64	0.06
505.122	0.06
505.603	0.06
506.085	0.06
506.566	0.06
507.048	0.06
507.53	0.06
508.011	0.06
508.493	0.06
508.975	0.06
509.457	0.06
509.938	0.06
510.42	0.06
510.902	0.06
511.384	0.06
511.866	0.06
512.348	0.06
512.83	0.06
513.312	0.06
513.794	0.06
514.276	0.06
514.759	0.06
515.241	0.06
515.723	0.06
516.206	0.06
516.688	0.06
517.17	0.06
517.653	0.06
518.135	0.06
518.618	0.06
519.1	0.06
519.583	0.06
520.065	0.06
520.548	0.06
521.031	0.06
521.513	0.06
521.996	0.06
522.479	0.06
522.962	0.06
523.445	0.06
523.927	0.06
524.41	0.06
524.893	0.06
525.376	0.06
525.859	0.06
526.343	0.06
526.826	0.06
527.309	0.06
527.792	0.06
528.275	0.06
528.759	0.06
529.242	0.06
529.725	0.06
530.209	0.06
530.692	0.06
531.175	0.06
531.659	0.06
532.142	0.06
532.626	0.06
533.11	0.06
533.593	0.06
534.077	0.06
534.561	0.06
535.044	0.06
535.528	0.06
536.012	0.06
536.496	0.06
536.98	0.06
537.464	0.06
537.948	0.06
538.432	0.06
538.916	0.06
539.4	0.06
539.884	0.06
540.368	0.06
540.852	0.06
541.336	0.06
541.821	0.06
542.305	0.06
542.789	0.06
543.274	0.06
543.758	0.06
544.243	0.06
544.727	0.06
545.211	0.06
545.696	0.06
546.181	0.06
546.665	0.06
547.15	0.06
547.635	0.06
548.119	0.06
548.604	0.06
549.089	0.06
549.574	0.06
550.059	0.06
550.543	0.06
551.028	0.06
551.513	0.06
551.998	0.06
552.483	0.06
552.968	0.06
553.454	0.06
553.939	0.06
554.424	0.06
554.909	0.06
555.394	0.06
555.88	0.06
556.365	0.06
556.85	0.06
557.336	0.06
557.821	0.06
558.307	0.06
558.792	0.06
559.278	0.06
559.763	0.06
560.249	0.06
560.735	0.06
561.22	0.06
561.706	0.06
562.192	0.06
562.677	0.06
563.163	0.06
563.649	0.06
564.135	0.06
564.621	0.06
565.107	0.06
565.593	0.06
566.079	0.06
566.565	0.06
567.051	0.06
567.537	0.06
568.023	0.06
568.51	0.06
568.996	0.06
569.482	0.06
569.968	0.06
570.455	0.06
570.941	0.06
571.428	0.06
571.914	0.06
572.4	0.06
572.887	0.06
573.374	0.06
573.86	0.06
574.347	0.06
574.833	0.06
575.32	0.06
575.807	0.06
576.294	0.06
576.78	0.06
577.267	0.06
577.754	0.06
578.241	0.06
578.728	0.06
579.215	0.06
579.702	0.06
580.189	0.06
580.676	0.06
581.163	0.06
581.65	0.06
582.137	0.06
582.625	0.06
583.112	0.06
583.599	0.06
584.086	0.07
584.574	0.06
585.061	0.06
585.548	0.06
586.036	0.06
586.523	0.06
587.011	0.07
587.498	0.07
587.986	0.06
588.474	0.06
588.961	0.06
589.449	0.07
589.937	0.06
590.424	0.06
590.912	0.06
591.4	0.06
591.888	0.06
592.376	0.06
592.864	0.06
593.352	0.06
593.84	0.06
594.328	0.06
594.816	0.06
595.304	0.07
595.792	0.07
596.28	0.06
596.768	0.06
597.256	0.06
597.745	0.06
598.233	0.06
598.721	0.06
599.209	0.06
599.698	0.07
600.186	0.07
600.675	0.06
601.163	0.06
601.652	0.07
602.14	0.07
602.629	0.07
603.117	0.06
603.606	0.06
604.095	0.06
604.583	0.07
605.072	0.06
605.561	0.06
606.05	0.06
606.539	0.07
607.028	0.06
607.516	0.06
608.005	0.06
608.494	0.06
608.983	0.06
609.472	0.06
609.961	0.06
610.451	0.06
610.94	0.06
611.429	0.06
611.918	0.06
612.407	0.06
612.897	0.06
613.386	0.06
613.875	0.06
614.365	0.06
614.854	0.06
615.343	0.06
615.833	0.06
616.322	0.07
616.812	0.06
617.301	0.06
617.791	0.06
618.281	0.07
618.77	0.06
619.26	0.06
619.75	0.06
620.24	0.06
620.729	0.06
621.219	0.06
621.709	0.06
622.199	0.06
622.689	0.06
623.179	0.06
623.669	0.06
624.159	0.07
624.649	0.06
625.139	0.06
625.629	0.06
626.119	0.06
626.609	0.06
627.099	0.06
627.59	0.06
628.08	0.06
628.57	0.06
629.061	0.06
629.551	0.06
630.041	0.06
630.532	0.06
631.022	0.06
631.513	0.06
632.003	0.06
632.494	0.06
632.984	0.06
633.475	0.06
633.966	0.06
634.456	0.06
634.947	0.06
635.438	0.07
635.929	0.06
636.419	0.07
636.91	0.06
637.401	0.06
637.892	0.06
638.383	0.06
638.874	0.06
639.365	0.06
639.856	0.06
640.347	0.06
640.838	0.06
641.329	0.06
641.82	0.06
642.311	0.07
642.803	0.06
643.294	0.06
643.785	0.06
644.277	0.06
644.768	0.06
645.259	0.06
645.751	0.06
646.242	0.06
646.734	0.06
647.225	0.06
647.717	0.06
648.208	0.06
648.7	0.07
649.191	0.06
649.683	0.06
650.175	0.07
650.666	0.07
651.158	0.06
651.65	0.06
652.142	0.06
652.633	0.06
653.125	0.06
653.617	0.06
654.109	0.07
654.601	0.06
655.093	0.07
655.585	0.07
656.077	0.06
656.569	0.07
657.061	0.07
657.553	0.07
658.046	0.07
658.538	0.07
659.03	0.07
659.522	0.06
660.015	0.06
660.507	0.06
660.999	0.06
661.492	0.06
661.984	0.06
662.476	0.06
662.969	0.06
663.461	0.06
663.954	0.06
664.446	0.06
664.939	0.06
665.432	0.06
665.924	0.06
666.417	0.07
666.91	0.06
667.402	0.06
667.895	0.06
668.388	0.06
668.881	0.06
