Data from paracetamol_Absorbance_14-54-02-454.txt Node
Date: Thu Feb 15 14:54:02 GMT 2018
User: darren.whitaker
Spectrometer: S03056
Trigger mode: 0
Resolution mode: 1024 pixels
Integration Time (sec): 1.000000E0
Scans to average: 1
Nonlinearity correction enabled: false
Boxcar width: 0
Baseline correction enabled: true
XAxis mode: Wavelengths
Number of Pixels in Spectrum: 1024
>>>>>Begin Spectral Data<<<<<
184.595	0.1
185.045	0.11
185.495	0.11
185.945	0.02
186.395	0.11
186.845	0.18
187.295	0.09
187.745	0.19
188.195	0.15
188.646	0.08
189.096	0.07
189.546	0.05
189.997	0.08
190.447	0.04
190.898	0.12
191.348	0.17
191.799	0.09
192.249	-0.02
192.7	0.27
193.151	0.11
193.602	0.19
194.053	0.04
194.504	0.06
194.955	0.23
195.406	0.2
195.857	0.11
196.308	0.21
196.759	0.23
197.21	0.09
197.662	0.02
198.113	0.09
198.564	0.04
199.016	0.1
199.467	0.16
199.919	0.06
200.371	0.18
200.822	0.24
201.274	0.06
201.726	0.21
202.178	0.13
202.63	0.2
203.082	0.19
203.534	0.03
203.986	0.2
204.438	0.19
204.89	0.15
205.342	0.12
205.794	0.16
206.247	0.25
206.699	0.21
207.152	0.18
207.604	0.18
208.057	0.27
208.509	0.23
208.962	0.21
209.415	0.19
209.867	0.24
210.32	0.26
210.773	0.27
211.226	0.2
211.679	0.24
212.132	0.16
212.585	0.28
213.038	0.24
213.491	0.29
213.944	0.35
214.398	0.22
214.851	0.26
215.304	0.27
215.758	0.32
216.211	0.23
216.665	0.24
217.119	0.29
217.572	0.32
218.026	0.34
218.48	0.32
218.933	0.32
219.387	0.32
219.841	0.31
220.295	0.32
220.749	0.39
221.203	0.39
221.657	0.33
222.112	0.39
222.566	0.38
223.02	0.39
223.474	0.46
223.929	0.39
224.383	0.4
224.838	0.4
225.292	0.49
225.747	0.46
226.202	0.43
226.656	0.48
227.111	0.46
227.566	0.52
228.021	0.51
228.476	0.5
228.931	0.51
229.386	0.52
229.841	0.52
230.296	0.54
230.751	0.53
231.206	0.54
231.661	0.56
232.117	0.55
232.572	0.58
233.027	0.58
233.483	0.59
233.938	0.59
234.394	0.6
234.85	0.62
235.305	0.62
235.761	0.62
236.217	0.63
236.673	0.65
237.129	0.66
237.585	0.66
238.041	0.66
238.497	0.66
238.953	0.68
239.409	0.69
239.865	0.69
240.321	0.69
240.778	0.7
241.234	0.69
241.69	0.7
242.147	0.69
242.603	0.71
243.06	0.71
243.517	0.72
243.973	0.72
244.43	0.71
244.887	0.71
245.343	0.7
245.8	0.72
246.257	0.72
246.714	0.71
247.171	0.71
247.628	0.72
248.085	0.72
248.543	0.71
249	0.71
249.457	0.69
249.914	0.69
250.372	0.68
250.829	0.67
251.287	0.67
251.744	0.66
252.202	0.65
252.659	0.65
253.117	0.64
253.575	0.63
254.033	0.62
254.491	0.61
254.948	0.6
255.406	0.6
255.864	0.59
256.322	0.58
256.78	0.56
257.239	0.56
257.697	0.54
258.155	0.54
258.613	0.53
259.072	0.51
259.53	0.5
259.988	0.49
260.447	0.48
260.906	0.46
261.364	0.46
261.823	0.45
262.281	0.44
262.74	0.43
263.199	0.41
263.658	0.4
264.117	0.4
264.576	0.39
265.035	0.37
265.494	0.37
265.953	0.36
266.412	0.35
266.871	0.34
267.33	0.33
267.79	0.33
268.249	0.32
268.708	0.31
269.168	0.3
269.627	0.3
270.087	0.29
270.546	0.29
271.006	0.28
271.466	0.28
271.926	0.27
272.385	0.27
272.845	0.26
273.305	0.26
273.765	0.26
274.225	0.25
274.685	0.25
275.145	0.25
275.605	0.25
276.065	0.24
276.526	0.24
276.986	0.24
277.446	0.24
277.907	0.23
278.367	0.23
278.828	0.23
279.288	0.23
279.749	0.22
280.209	0.22
280.67	0.21
281.131	0.21
281.592	0.22
282.052	0.21
282.513	0.21
282.974	0.21
283.435	0.2
283.896	0.2
284.357	0.2
284.818	0.19
285.28	0.19
285.741	0.18
286.202	0.18
286.663	0.18
287.125	0.18
287.586	0.17
288.048	0.17
288.509	0.17
288.971	0.17
289.432	0.16
289.894	0.15
290.356	0.15
290.818	0.15
291.279	0.14
291.741	0.14
292.203	0.14
292.665	0.14
293.127	0.13
293.589	0.13
294.051	0.12
294.513	0.13
294.976	0.12
295.438	0.12
295.9	0.11
296.363	0.11
296.825	0.11
297.287	0.1
297.75	0.1
298.212	0.1
298.675	0.1
299.138	0.09
299.6	0.09
300.063	0.08
300.526	0.08
300.989	0.08
301.452	0.08
301.914	0.08
302.377	0.07
302.84	0.07
303.304	0.07
303.767	0.07
304.23	0.07
304.693	0.07
305.156	0.06
305.62	0.07
306.083	0.06
306.546	0.06
307.01	0.06
307.473	0.06
307.937	0.06
308.4	0.06
308.864	0.06
309.328	0.06
309.792	0.06
310.255	0.06
310.719	0.06
311.183	0.06
311.647	0.06
312.111	0.06
312.575	0.06
313.039	0.06
313.503	0.06
313.967	0.06
314.432	0.06
314.896	0.06
315.36	0.06
315.825	0.06
316.289	0.06
316.753	0.06
317.218	0.06
317.683	0.06
318.147	0.06
318.612	0.06
319.076	0.06
319.541	0.06
320.006	0.06
320.471	0.06
320.936	0.06
321.401	0.06
321.866	0.06
322.331	0.06
322.796	0.06
323.261	0.06
323.726	0.06
324.191	0.06
324.656	0.06
325.122	0.06
325.587	0.06
326.053	0.06
326.518	0.06
326.983	0.06
327.449	0.06
327.915	0.06
328.38	0.06
328.846	0.06
329.312	0.06
329.777	0.06
330.243	0.06
330.709	0.06
331.175	0.06
331.641	0.06
332.107	0.06
332.573	0.06
333.039	0.06
333.505	0.06
333.972	0.06
334.438	0.06
334.904	0.06
335.37	0.06
335.837	0.06
336.303	0.06
336.77	0.06
337.236	0.06
337.703	0.06
338.169	0.06
338.636	0.06
339.103	0.06
339.569	0.06
340.036	0.06
340.503	0.06
340.97	0.06
341.437	0.06
341.904	0.06
342.371	0.06
342.838	0.06
343.305	0.06
343.772	0.06
344.24	0.06
344.707	0.06
345.174	0.06
345.641	0.06
346.109	0.06
346.576	0.06
347.044	0.06
347.511	0.06
347.979	0.06
348.447	0.06
348.914	0.06
349.382	0.06
349.85	0.06
350.318	0.06
350.785	0.06
351.253	0.06
351.721	0.06
352.189	0.06
352.657	0.06
353.125	0.06
353.594	0.06
354.062	0.06
354.53	0.06
354.998	0.06
355.466	0.06
355.935	0.06
356.403	0.06
356.872	0.06
357.34	0.06
357.809	0.06
358.277	0.06
358.746	0.06
359.215	0.06
359.683	0.06
360.152	0.06
360.621	0.06
361.09	0.06
361.559	0.06
362.028	0.06
362.497	0.06
362.966	0.06
363.435	0.06
363.904	0.06
364.373	0.06
364.842	0.06
365.312	0.06
365.781	0.06
366.25	0.06
366.72	0.06
367.189	0.06
367.658	0.06
368.128	0.06
368.598	0.06
369.067	0.06
369.537	0.06
370.007	0.06
370.476	0.06
370.946	0.06
371.416	0.06
371.886	0.06
372.356	0.06
372.826	0.06
373.296	0.06
373.766	0.06
374.236	0.06
374.706	0.06
375.176	0.06
375.647	0.06
376.117	0.06
376.587	0.06
377.058	0.06
377.528	0.06
377.998	0.06
378.469	0.06
378.94	0.06
379.41	0.06
379.881	0.06
380.351	0.06
380.822	0.06
381.293	0.06
381.764	0.06
382.235	0.06
382.706	0.06
383.177	0.06
383.648	0.06
384.119	0.06
384.59	0.06
385.061	0.06
385.532	0.06
386.003	0.06
386.474	0.06
386.946	0.06
387.417	0.06
387.888	0.06
388.36	0.06
388.831	0.06
389.303	0.06
389.774	0.06
390.246	0.06
390.718	0.06
391.189	0.06
391.661	0.06
392.133	0.06
392.605	0.06
393.077	0.06
393.549	0.06
394.021	0.06
394.493	0.06
394.965	0.06
395.437	0.06
395.909	0.06
396.381	0.06
396.853	0.06
397.325	0.06
397.798	0.06
398.27	0.06
398.743	0.06
399.215	0.06
399.687	0.06
400.16	0.06
400.633	0.06
401.105	0.06
401.578	0.06
402.051	0.06
402.523	0.06
402.996	0.06
403.469	0.06
403.942	0.06
404.415	0.06
404.888	0.06
405.361	0.06
405.834	0.06
406.307	0.06
406.78	0.06
407.253	0.06
407.726	0.06
408.199	0.06
408.673	0.06
409.146	0.06
409.619	0.06
410.093	0.06
410.566	0.06
411.04	0.06
411.513	0.06
411.987	0.07
412.461	0.06
412.934	0.06
413.408	0.06
413.882	0.07
414.356	0.06
414.829	0.06
415.303	0.06
415.777	0.06
416.251	0.07
416.725	0.06
417.199	0.06
417.673	0.06
418.148	0.06
418.622	0.06
419.096	0.06
419.57	0.06
420.045	0.07
420.519	0.06
420.993	0.06
421.468	0.06
421.942	0.06
422.417	0.06
422.891	0.06
423.366	0.06
423.841	0.07
424.315	0.07
424.79	0.06
425.265	0.07
425.74	0.06
426.215	0.06
426.689	0.06
427.164	0.06
427.639	0.06
428.114	0.06
428.589	0.06
429.065	0.06
429.54	0.07
430.015	0.06
430.49	0.07
430.965	0.06
431.441	0.06
431.916	0.06
432.392	0.07
432.867	0.06
433.342	0.06
433.818	0.07
434.294	0.07
434.769	0.06
435.245	0.06
435.721	0.06
436.196	0.06
436.672	0.07
437.148	0.07
437.624	0.07
438.1	0.07
438.576	0.06
439.052	0.07
439.528	0.06
440.004	0.07
440.48	0.07
440.956	0.07
441.432	0.06
441.908	0.07
442.385	0.07
442.861	0.07
443.337	0.07
443.814	0.06
444.29	0.07
444.767	0.07
445.243	0.07
445.72	0.07
446.196	0.06
446.673	0.07
447.15	0.07
447.626	0.07
448.103	0.07
448.58	0.07
449.057	0.07
449.534	0.07
450.01	0.07
450.487	0.07
450.964	0.07
451.442	0.07
451.919	0.07
452.396	0.07
452.873	0.07
453.35	0.07
453.827	0.07
454.305	0.07
454.782	0.07
455.259	0.07
455.737	0.07
456.214	0.07
456.692	0.07
457.169	0.07
457.647	0.07
458.124	0.07
458.602	0.07
459.08	0.07
459.557	0.07
460.035	0.07
460.513	0.07
460.991	0.07
461.469	0.07
461.947	0.07
462.425	0.07
462.903	0.07
463.381	0.07
463.859	0.07
464.337	0.07
464.815	0.07
465.293	0.07
465.772	0.07
466.25	0.07
466.728	0.07
467.207	0.07
467.685	0.07
468.164	0.07
468.642	0.07
469.121	0.07
469.599	0.07
470.078	0.07
470.556	0.07
471.035	0.07
471.514	0.07
471.993	0.07
472.471	0.07
472.95	0.07
473.429	0.07
473.908	0.07
474.387	0.07
474.866	0.07
475.345	0.07
475.824	0.07
476.303	0.07
476.782	0.07
477.262	0.07
477.741	0.07
478.22	0.07
478.7	0.07
479.179	0.07
479.658	0.07
480.138	0.07
480.617	0.07
481.097	0.07
481.576	0.07
482.056	0.07
482.535	0.07
483.015	0.07
483.495	0.07
483.975	0.07
484.454	0.07
484.934	0.07
485.414	0.07
485.894	0.07
486.374	0.07
486.854	0.07
487.334	0.07
487.814	0.07
488.294	0.07
488.774	0.07
489.254	0.07
489.735	0.07
490.215	0.07
490.695	0.07
491.176	0.07
491.656	0.07
492.136	0.07
492.617	0.07
493.097	0.07
493.578	0.07
494.058	0.07
494.539	0.07
495.02	0.07
495.5	0.07
495.981	0.07
496.462	0.07
496.943	0.07
497.423	0.07
497.904	0.07
498.385	0.07
498.866	0.07
499.347	0.07
499.828	0.07
500.309	0.07
500.79	0.07
501.271	0.07
501.753	0.07
502.234	0.07
502.715	0.07
503.196	0.07
503.678	0.07
504.159	0.07
504.64	0.07
505.122	0.07
505.603	0.07
506.085	0.07
506.566	0.07
507.048	0.07
507.53	0.07
508.011	0.07
508.493	0.07
508.975	0.07
509.457	0.07
509.938	0.07
510.42	0.07
510.902	0.07
511.384	0.07
511.866	0.07
512.348	0.07
512.83	0.07
513.312	0.07
513.794	0.07
514.276	0.07
514.759	0.07
515.241	0.07
515.723	0.07
516.206	0.07
516.688	0.07
517.17	0.07
517.653	0.07
518.135	0.07
518.618	0.07
519.1	0.07
519.583	0.07
520.065	0.07
520.548	0.07
521.031	0.07
521.513	0.07
521.996	0.07
522.479	0.07
522.962	0.07
523.445	0.07
523.927	0.07
524.41	0.07
524.893	0.07
525.376	0.07
525.859	0.07
526.343	0.07
526.826	0.07
527.309	0.07
527.792	0.07
528.275	0.07
528.759	0.07
529.242	0.07
529.725	0.07
530.209	0.07
530.692	0.07
531.175	0.07
531.659	0.07
532.142	0.07
532.626	0.07
533.11	0.07
533.593	0.07
534.077	0.07
534.561	0.07
535.044	0.07
535.528	0.07
536.012	0.07
536.496	0.07
536.98	0.07
537.464	0.07
537.948	0.07
538.432	0.07
538.916	0.07
539.4	0.07
539.884	0.07
540.368	0.07
540.852	0.07
541.336	0.07
541.821	0.07
542.305	0.07
542.789	0.07
543.274	0.07
543.758	0.07
544.243	0.07
544.727	0.07
545.211	0.07
545.696	0.07
546.181	0.07
546.665	0.07
547.15	0.07
547.635	0.07
548.119	0.07
548.604	0.07
549.089	0.07
549.574	0.07
550.059	0.07
550.543	0.07
551.028	0.07
551.513	0.07
551.998	0.07
552.483	0.07
552.968	0.07
553.454	0.07
553.939	0.07
554.424	0.07
554.909	0.07
555.394	0.07
555.88	0.07
556.365	0.07
556.85	0.07
557.336	0.07
557.821	0.07
558.307	0.07
558.792	0.07
559.278	0.07
559.763	0.07
560.249	0.07
560.735	0.07
561.22	0.07
561.706	0.07
562.192	0.07
562.677	0.07
563.163	0.07
563.649	0.07
564.135	0.07
564.621	0.07
565.107	0.07
565.593	0.07
566.079	0.07
566.565	0.07
567.051	0.07
567.537	0.07
568.023	0.07
568.51	0.07
568.996	0.07
569.482	0.07
569.968	0.07
570.455	0.07
570.941	0.07
571.428	0.07
571.914	0.07
572.4	0.07
572.887	0.07
573.374	0.07
573.86	0.07
574.347	0.07
574.833	0.07
575.32	0.07
575.807	0.07
576.294	0.07
576.78	0.07
577.267	0.07
577.754	0.07
578.241	0.07
578.728	0.07
579.215	0.07
579.702	0.07
580.189	0.07
580.676	0.07
581.163	0.07
581.65	0.07
582.137	0.07
582.625	0.07
583.112	0.07
583.599	0.07
584.086	0.07
584.574	0.07
585.061	0.07
585.548	0.07
586.036	0.07
586.523	0.07
587.011	0.07
587.498	0.07
587.986	0.07
588.474	0.07
588.961	0.07
589.449	0.07
589.937	0.07
590.424	0.07
590.912	0.07
591.4	0.07
591.888	0.07
592.376	0.07
592.864	0.07
593.352	0.07
593.84	0.07
594.328	0.07
594.816	0.07
595.304	0.07
595.792	0.07
596.28	0.07
596.768	0.07
597.256	0.07
597.745	0.07
598.233	0.07
598.721	0.07
599.209	0.07
599.698	0.07
600.186	0.07
600.675	0.07
601.163	0.07
601.652	0.07
602.14	0.07
602.629	0.07
603.117	0.07
603.606	0.07
604.095	0.07
604.583	0.07
605.072	0.07
605.561	0.07
606.05	0.07
606.539	0.07
607.028	0.07
607.516	0.07
608.005	0.07
608.494	0.07
608.983	0.07
609.472	0.07
609.961	0.07
610.451	0.07
610.94	0.07
611.429	0.07
611.918	0.07
612.407	0.07
612.897	0.07
613.386	0.07
613.875	0.07
614.365	0.07
614.854	0.07
615.343	0.07
615.833	0.07
616.322	0.07
616.812	0.07
617.301	0.07
617.791	0.07
618.281	0.07
618.77	0.07
619.26	0.07
619.75	0.07
620.24	0.07
620.729	0.07
621.219	0.07
621.709	0.07
622.199	0.07
622.689	0.07
623.179	0.07
623.669	0.07
624.159	0.07
624.649	0.07
625.139	0.07
625.629	0.07
626.119	0.07
626.609	0.07
627.099	0.07
627.59	0.07
628.08	0.07
628.57	0.07
629.061	0.07
629.551	0.07
630.041	0.07
630.532	0.07
631.022	0.07
631.513	0.07
632.003	0.07
632.494	0.07
632.984	0.07
633.475	0.07
633.966	0.07
634.456	0.07
634.947	0.07
635.438	0.07
635.929	0.07
636.419	0.07
636.91	0.07
637.401	0.07
637.892	0.07
638.383	0.07
638.874	0.07
639.365	0.07
639.856	0.07
640.347	0.07
640.838	0.07
641.329	0.07
641.82	0.07
642.311	0.07
642.803	0.07
643.294	0.07
643.785	0.07
644.277	0.07
644.768	0.07
645.259	0.07
645.751	0.07
646.242	0.07
646.734	0.07
647.225	0.07
647.717	0.07
648.208	0.07
648.7	0.07
649.191	0.07
649.683	0.07
650.175	0.07
650.666	0.07
651.158	0.07
651.65	0.07
652.142	0.07
652.633	0.07
653.125	0.07
653.617	0.07
654.109	0.07
654.601	0.07
655.093	0.07
655.585	0.07
656.077	0.07
656.569	0.07
657.061	0.07
657.553	0.07
658.046	0.07
658.538	0.07
659.03	0.07
659.522	0.07
660.015	0.07
660.507	0.07
660.999	0.07
661.492	0.07
661.984	0.07
662.476	0.07
662.969	0.07
663.461	0.07
663.954	0.07
664.446	0.07
664.939	0.07
665.432	0.07
665.924	0.07
666.417	0.07
666.91	0.07
667.402	0.07
667.895	0.07
668.388	0.07
668.881	0.07
