Data from S030561_13-52-32-128.txt Node
Date: Thu Feb 22 13:52:32 GMT 2018
User: darren.whitaker
Spectrometer: S03056
Trigger mode: 0
Resolution mode: 1024 pixels
Integration Time (sec): 1.500000E0
Scans to average: 1
Nonlinearity correction enabled: false
Boxcar width: 0
Baseline correction enabled: true
XAxis mode: Wavelengths
Number of Pixels in Spectrum: 1024
>>>>>Begin Spectral Data<<<<<
184.595	35
185.045	4
185.495	29
185.945	38
186.395	-21
186.845	51
187.295	29
187.745	62
188.195	61
188.646	8
189.096	53
189.546	39
189.997	57
190.447	64
190.898	67
191.348	45
191.799	54
192.249	54
192.7	51
193.151	53
193.602	60
194.053	12
194.504	58
194.955	9
195.406	38
195.857	64
196.308	61
196.759	56
197.21	45
197.662	58
198.113	59
198.564	50
199.016	48
199.467	22
199.919	58
200.371	30
200.822	71
201.274	70
201.726	36
202.178	47
202.63	70
203.082	56
203.534	80
203.986	67
204.438	59
204.89	92
205.342	69
205.794	52
206.247	84
206.699	47
207.152	64
207.604	87
208.057	81
208.509	90
208.962	92.5
209.415	95
209.867	108
210.32	92
210.773	56
211.226	113
211.679	56
212.132	52
212.585	76
213.038	129
213.491	115
213.944	108
214.398	105
214.851	115
215.304	133
215.758	147
216.211	134
216.665	149
217.119	157
217.572	130
218.026	149
218.48	186
218.933	204
219.387	212
219.841	206
220.295	218
220.749	236
221.203	216
221.657	260
222.112	265
222.566	257
223.02	299
223.474	308
223.929	294
224.383	319
224.838	347
225.292	362
225.747	376
226.202	371
226.656	392
227.111	366
227.566	436
228.021	443
228.476	443
228.931	464
229.386	492
229.841	510
230.296	555
230.751	579
231.206	580
231.661	599
232.117	605
232.572	651
233.027	662
233.483	644
233.938	686
234.394	752
234.85	782
235.305	814
235.761	846
236.217	901
236.673	878
237.129	935
237.585	959
238.041	1027
238.497	1056
238.953	1096
239.409	1098
239.865	1173
240.321	1199
240.778	1227
241.234	1213
241.69	1240
242.147	1315
242.603	1361
243.06	1432
243.517	1474
243.973	1447
244.43	1458
244.887	1504
245.343	1507
245.8	1556
246.257	1575
246.714	1609
247.171	1656
247.628	1699
248.085	1715
248.543	1734
249	1731
249.457	1746
249.914	1751
250.372	1793
250.829	1819
251.287	1847
251.744	1857
252.202	1788
252.659	1937
253.117	1863
253.575	1896
254.033	1951
254.491	1988
254.948	1969
255.406	2019
255.864	2028
256.322	2036
256.78	2004
257.239	1949
257.697	2069
258.155	2009
258.613	2067
259.072	2078
259.53	2059
259.988	2032
260.447	2013
260.906	2009
261.364	2008
261.823	1981
262.281	2017
262.74	2009
263.199	2010
263.658	1983
264.117	1944
264.576	1936
265.035	1949
265.494	2004
265.953	2008
266.412	2002
266.871	1975
267.33	1961
267.79	1980
268.249	1969
268.708	1931
269.168	1937
269.627	1972
270.087	1955
270.546	1971
271.006	1960
271.466	1925
271.926	1938
272.385	1905
272.845	1966
273.305	1992
273.765	1923
274.225	1953
274.685	1970
275.145	1960
275.605	1897
276.065	1948
276.526	1974
276.986	1987
277.446	1965
277.907	1973
278.367	1991
278.828	1988
279.288	1958
279.749	2048
280.209	2040
280.67	2020
281.131	2052
281.592	2079
282.052	2089
282.513	2148
282.974	2113
283.435	2134
283.896	2217
284.357	2203
284.818	2163
285.28	2128
285.741	2171
286.202	2121
286.663	2232
287.125	2228
287.586	2249
288.048	2358
288.509	2327
288.971	2344
289.432	2370
289.894	2343
290.356	2378
290.818	2309
291.279	2345
291.741	2386
292.203	2397
292.665	2362
293.127	2421
293.589	2397
294.051	2464
294.513	2439
294.976	2455
295.438	2486
295.9	2452
296.363	2494
296.825	2535
297.287	2581
297.75	2626
298.212	2581
298.675	2550
299.138	2620
299.6	2606
300.063	2597
300.526	2650
300.989	2756
301.452	2791
301.914	2737
302.377	2820
302.84	2767
303.304	2896
303.767	2951
304.23	2969
304.693	2957
305.156	2935
305.62	3014
306.083	3061
306.546	3088
307.01	3106
307.473	3130
307.937	3134
308.4	3144
308.864	3124
309.328	3181
309.792	3088
310.255	3174
310.719	3232
311.183	3227
311.647	3238
312.111	3268
312.575	3259
313.039	3329
313.503	3369
313.967	3347
314.432	3386
314.896	3311
315.36	3353
315.825	3393
316.289	3367
316.753	3451
317.218	3518
317.683	3469
318.147	3521
318.612	3526
319.076	3545
319.541	3518
320.006	3590
320.471	3558
320.936	3487
321.401	3483
321.866	3541
322.331	3539
322.796	3536
323.261	3576
323.726	3525
324.191	3475
324.656	3501
325.122	3525
325.587	3501
326.053	3531
326.518	3526
326.983	3488
327.449	3553
327.915	3568
328.38	3553
328.846	3562
329.312	3536
329.777	3596
330.243	3527
330.709	3431
331.175	3579
331.641	3590
332.107	3713
332.573	3791
333.039	3727
333.505	3686
333.972	3669
334.438	3850
334.904	3794
335.37	3795
335.837	3772
336.303	3764
336.77	3890
337.236	3860
337.703	3776
338.169	3917
338.636	3899
339.103	3951
339.569	3965
340.036	3954
340.503	3901
340.97	3905
341.437	3967
341.904	4040
342.371	4060
342.838	4027
343.305	3991
343.772	3981
344.24	3911
344.707	3951
345.174	3935
345.641	3880
346.109	3909
346.576	3887
347.044	3761
347.511	3850
347.979	3755
348.447	3904
348.914	3891
349.382	3822
349.85	3793
350.318	3809
350.785	3802
351.253	3948
351.721	3756
352.189	3896
352.657	3805
353.125	3743
353.594	3849
354.062	3898
354.53	3820
354.998	3809
355.466	3790
355.935	3834
356.403	3722
356.872	3754
357.34	3877
357.809	3777
358.277	3889
358.746	3862
359.215	3928
359.683	3876
360.152	3974
360.621	3930
361.09	3984
361.559	4010
362.028	3980
362.497	4038
362.966	3963
363.435	3949
363.904	4243
364.373	4045
364.842	4041
365.312	4140
365.781	4044
366.25	4145
366.72	4130
367.189	4178
367.658	4164
368.128	4255
368.598	4226
369.067	4262
369.537	4198
370.007	4204
370.476	4251
370.946	4115
371.416	4280
371.886	4094
372.356	4154
372.826	4194
373.296	4138
373.766	4140
374.236	4157
374.706	4173
375.176	4076
375.647	4110
376.117	4066
376.587	4122
377.058	4200
377.528	4169
377.998	4208
378.469	4231
378.94	4287
379.41	4179
379.881	4203
380.351	4178
380.822	4114
381.293	4157
381.764	4151
382.235	4117
382.706	4007
383.177	3931
383.648	4231
384.119	4148
384.59	4131
385.061	4084
385.532	4108
386.003	4211
386.474	3987
386.946	4021
387.417	4251
387.888	4082
388.36	3973
388.831	4036
389.303	4142
389.774	3976
390.246	4188
390.718	4082
391.189	3936
391.661	4233
392.133	3987
392.605	4040
393.077	3890
393.549	4169
394.021	4346
394.493	4073
394.965	4130
395.437	3966
395.909	3957
396.381	4263
396.853	3891
397.325	4375
397.798	4140
398.27	4030
398.743	4192
399.215	4183
399.687	4285
400.16	4431
400.633	4139
401.105	3812
401.578	3991
402.051	4052
402.523	3981
402.996	4020
403.469	4085
403.942	3850
404.415	4026
404.888	4027
405.361	3943
405.834	3825
406.307	3894
406.78	3817
407.253	4066
407.726	3883
408.199	4009
408.673	3952
409.146	3707
409.619	3823
410.093	3705
410.566	3895
411.04	3694
411.513	3703
411.987	3743
412.461	3761
412.934	3723
413.408	3669
413.882	3551
414.356	3661
414.829	3663
415.303	3766
415.777	3627
416.251	3640
416.725	3733
417.199	3375
417.673	3546
418.148	3403
418.622	3711
419.096	3425
419.57	3676
420.045	3545
420.519	3556
420.993	3660
421.468	3568
421.942	3560
422.417	3577
422.891	3713
423.366	3625
423.841	3646
424.315	3513
424.79	3657
425.265	3602
425.74	3417
426.215	3503
426.689	3465
427.164	3659
427.639	3551
428.114	3690
428.589	3750
429.065	3693
429.54	3593
430.015	3812
430.49	3467
430.965	3594
431.441	3600
431.916	3566
432.392	3510
432.867	3492
433.342	3541
433.818	3486
434.294	3488
434.769	3629
435.245	3456
435.721	3609
436.196	3674
436.672	3437
437.148	3445
437.624	3618
438.1	3791
438.576	3498
439.052	3605
439.528	3681
440.004	3462
440.48	3478
440.956	3512
441.432	3472
441.908	3666
442.385	3654
442.861	3486
443.337	3592
443.814	3448
444.29	3501
444.767	3560
445.243	3685
445.72	3464
446.196	3676
446.673	3715
447.15	3492
447.626	3631
448.103	3519
448.58	3510
449.057	3416
449.534	3618
450.01	3528
450.487	3466
450.964	3317
451.442	3659
451.919	3273
452.396	3358
452.873	3407
453.35	3456
453.827	3610
454.305	3297
454.782	3200
455.259	3097
455.737	3346
456.214	3164
456.692	3171
457.169	3199
457.647	3188
458.124	3237
458.602	3349
459.08	3163
459.557	3279
460.035	3325
460.513	3203
460.991	3324
461.469	3141
461.947	3215
462.425	3230
462.903	3148
463.381	3255
463.859	3301
464.337	3275
464.815	3334
465.293	3239
465.772	3197
466.25	3189
466.728	3433
467.207	3169
467.685	3196
468.164	3159
468.642	3032
469.121	3110
469.599	3087
470.078	3093
470.556	2976
471.035	2980
471.514	3001
471.993	3089
472.471	2934
472.95	3137
473.429	3093
473.908	3183
474.387	3318
474.866	3269
475.345	3459
475.824	3300
476.303	3367
476.782	3423
477.262	3411
477.741	3501
478.22	3503
478.7	3512
479.179	3559
479.658	3570
480.138	3600
480.617	3663
481.097	3565
481.576	3650
482.056	3693
482.535	3789
483.015	3830
483.495	4026
483.975	4030
484.454	4162
484.934	4152
485.414	4085
485.894	4168
486.374	4168
486.854	4157
487.334	4128
487.814	4068
488.294	4001
488.774	3909
489.254	3818
489.735	3677
490.215	3654
490.695	3603
491.176	3611
491.656	3453
492.136	3626
492.617	3558
493.097	3572
493.578	3541
494.058	3647
494.539	3671
495.02	3593
495.5	3552
495.981	3646
496.462	3620
496.943	3559
497.423	3583
497.904	3548
498.385	3481
498.866	3497
499.347	3500
499.828	3503
500.309	3349
500.79	3480
501.271	3498
501.753	3521
502.234	3340
502.715	3521
503.196	3446
503.678	3498
504.159	3524
504.64	3435
505.122	3393
505.603	3435
506.085	3429
506.566	3367
507.048	3389
507.53	3372
508.011	3198
508.493	3373
508.975	3300
509.457	3294
509.938	3256
510.42	3269
510.902	3259
511.384	3299
511.866	3290
512.348	3232
512.83	3159
513.312	3173
513.794	3191
514.276	3080
514.759	3125
515.241	3061
515.723	3093
516.206	2992
516.688	2978
517.17	3049
517.653	2964
518.135	2944
518.618	2994
519.1	2943
519.583	2871
520.065	2856
520.548	2838
521.031	2831
521.513	2736
521.996	2807
522.479	2756
522.962	2793
523.445	2703
523.927	2718
524.41	2723
524.893	2685
525.376	2646
525.859	2635
526.343	2660
526.826	2609
527.309	2545
527.792	2639
528.275	2567
528.759	2591
529.242	2562
529.725	2529
530.209	2492
530.692	2485
531.175	2516
531.659	2512
532.142	2501
532.626	2516
533.11	2505
533.593	2499
534.077	2466
534.561	2514
535.044	2490
535.528	2514
536.012	2506
536.496	2473
536.98	2528
537.464	2506
537.948	2469
538.432	2491
538.916	2475
539.4	2519
539.884	2505
540.368	2470
540.852	2537
541.336	2481
541.821	2525
542.305	2527
542.789	2489
543.274	2527
543.758	2500
544.243	2496
544.727	2581
545.211	2566
545.696	2608
546.181	2632
546.665	2623
547.15	2553
547.635	2611
548.119	2541
548.604	2551
549.089	2605
549.574	2630
550.059	2574
550.543	2605
551.028	2585
551.513	2515
551.998	2577
552.483	2622
552.968	2648
553.454	2615
553.939	2758
554.424	2707
554.909	2705
555.394	2707
555.88	2718
556.365	2697
556.85	2674
557.336	2723
557.821	2701
558.307	2782
558.792	2769
559.278	2830
559.763	2824
560.249	2862
560.735	2932
561.22	2984
561.706	3036
562.192	3039
562.677	3087
563.163	3071
563.649	3075
564.135	3084
564.621	3102
565.107	3093
565.593	3169
566.079	3204
566.565	3303
567.051	3383
567.537	3524
568.023	3653
568.51	3861
568.996	3997
569.482	4176
569.968	4334
570.455	4513
570.941	4743
571.428	4847
571.914	5033
572.4	5232
572.887	5353
573.374	5393
573.86	5494
574.347	5535
574.833	5723
575.32	5927
575.807	6088
576.294	6073
576.78	6206
577.267	6202
577.754	6151
578.241	6376
578.728	6594
579.215	6832
579.702	6879.5
580.189	6927
580.676	6656
581.163	6587
581.65	6672
582.137	6775
582.625	6800
583.112	6825
583.599	6721
584.086	6643
584.574	6517
585.061	6391
585.548	6382
586.036	6243
586.523	6326
587.011	6199
587.498	6056
587.986	5876
588.474	5579
588.961	5611
589.449	5489
589.937	5432
590.424	5476
590.912	5523
591.4	5529
591.888	5574
592.376	5617
592.864	5489
593.352	5617
593.84	5580
594.328	5652
594.816	5723
595.304	5571
595.792	5543
596.28	5530
596.768	5731
597.256	5848
597.745	5907
598.233	5985
598.721	6035
599.209	6116
599.698	6127
600.186	6085
600.675	6157
601.163	6099
601.652	6088
602.14	6021
602.629	5948
603.117	5823
603.606	5885
604.095	5988
604.583	5938
605.072	6063
605.561	6246
606.05	6022
606.539	6091
607.028	5994
607.516	5920
608.005	6006
608.494	5754
608.983	5624
609.472	5578
609.961	5482
610.451	5407
610.94	5234
611.429	5390
611.918	5380
612.407	5336
612.897	5363.5
613.386	5391
613.875	5414
614.365	5254
614.854	5373
615.343	5182
615.833	5171
616.322	5101
616.812	4987
617.301	4869
617.791	4757
618.281	4534
618.77	4562
619.26	4534
619.75	4407
620.24	4406
620.729	4404
621.219	4426.5
621.709	4449
622.199	4404
622.689	4463
623.179	4372
623.669	4333
624.159	4370
624.649	4364
625.139	4232
625.629	4204
626.119	4244
626.609	4145
627.099	4086
627.59	4006
628.08	3976
628.57	3919
629.061	3886
629.551	3808
630.041	3757
630.532	3742
631.022	3686
631.513	3572
632.003	3504
632.494	3425
632.984	3513
633.475	3459
633.966	3457
634.456	3459
634.947	3463
635.438	3446
635.929	3359
636.419	3437
636.91	3459
637.401	3409
637.892	3463
638.383	3369
638.874	3336
639.365	3302
639.856	3353
640.347	3306
640.838	3296
641.329	3194
641.82	3310
642.311	3289
642.803	3339
643.294	3261
643.785	3318
644.277	3270
644.768	3336
645.259	3248
645.751	3398
646.242	3356
646.734	3446
647.225	3458
647.717	3455
648.208	3481
648.7	3561
649.191	3562
649.683	3620
650.175	3610
650.666	3579
651.158	3552
651.65	3608
652.142	4136
652.633	4884
653.125	5705
653.617	6337
654.109	6646
654.601	6793
655.093	7016
655.585	6966
656.077	7118
656.569	6963
657.061	6882
657.553	6583
658.046	5633
658.538	4857
659.03	4077
659.522	3870
660.015	3590
660.507	3514
660.999	3478
661.492	3496
661.984	3435
662.476	3445
662.969	3549
663.461	3495
663.954	3484
664.446	3520
664.939	3502
665.432	3548
665.924	3513
666.417	3529
666.91	3567
667.402	3521
667.895	3576
668.388	3611
668.881	3663
