Data from S030561_13-51-24-613.txt Node
Date: Thu Feb 22 13:51:24 GMT 2018
User: darren.whitaker
Spectrometer: S03056
Trigger mode: 0
Resolution mode: 1024 pixels
Integration Time (sec): 1.500000E0
Scans to average: 1
Nonlinearity correction enabled: false
Boxcar width: 0
Baseline correction enabled: true
XAxis mode: Wavelengths
Number of Pixels in Spectrum: 1024
>>>>>Begin Spectral Data<<<<<
184.595	29
185.045	3
185.495	27
185.945	38
186.395	-23
186.845	47
187.295	29
187.745	63
188.195	58
188.646	6
189.096	48
189.546	38
189.997	56
190.447	62
190.898	65
191.348	39
191.799	54
192.249	47
192.7	46
193.151	51
193.602	51
194.053	12
194.504	57
194.955	13
195.406	32
195.857	59
196.308	57
196.759	53
197.21	47
197.662	53
198.113	58
198.564	50
199.016	51
199.467	22
199.919	57
200.371	28
200.822	71
201.274	73
201.726	31
202.178	44
202.63	66
203.082	55
203.534	72
203.986	60
204.438	55
204.89	81
205.342	69
205.794	48
206.247	83
206.699	46
207.152	65
207.604	85
208.057	74
208.509	88
208.962	90
209.415	92
209.867	97
210.32	90
210.773	57
211.226	108
211.679	54
212.132	55
212.585	73
213.038	123
213.491	110
213.944	107
214.398	101
214.851	113
215.304	132
215.758	147
216.211	133
216.665	144
217.119	152
217.572	129
218.026	144
218.48	183
218.933	204
219.387	209
219.841	203
220.295	211
220.749	234
221.203	212
221.657	252
222.112	260
222.566	248
223.02	289
223.474	298
223.929	289
224.383	310
224.838	338
225.292	348
225.747	365
226.202	360
226.656	380
227.111	349
227.566	418
228.021	427
228.476	428
228.931	452
229.386	475
229.841	491
230.296	526
230.751	547
231.206	553
231.661	577
232.117	574
232.572	618
233.027	630
233.483	608
233.938	651
234.394	715
234.85	753
235.305	775
235.761	802
236.217	856
236.673	827
237.129	881
237.585	908
238.041	967
238.497	995
238.953	1030
239.409	1029
239.865	1099
240.321	1130
240.778	1153
241.234	1131
241.69	1163
242.147	1233
242.603	1268
243.06	1352
243.517	1387
243.973	1357
244.43	1362
244.887	1410
245.343	1423
245.8	1472
246.257	1481
246.714	1508
247.171	1559
247.628	1597
248.085	1618
248.543	1627
249	1636
249.457	1645
249.914	1651
250.372	1685
250.829	1725
251.287	1744
251.744	1762
252.202	1696
252.659	1839
253.117	1771
253.575	1811
254.033	1872
254.491	1901
254.948	1885
255.406	1932
255.864	1950
256.322	1957
256.78	1928
257.239	1873
257.697	1988
258.155	1947
258.613	2000
259.072	2014
259.53	1995
259.988	1975
260.447	1955
260.906	1954
261.364	1953
261.823	1935
262.281	1976
262.74	1966
263.199	1969
263.658	1944
264.117	1903
264.576	1901
265.035	1924
265.494	1976
265.953	1975
266.412	1977
266.871	1958
267.33	1940
267.79	1965
268.249	1944
268.708	1914
269.168	1922
269.627	1955
270.087	1941
270.546	1959
271.006	1948
271.466	1915
271.926	1925
272.385	1905
272.845	1960
273.305	1983
273.765	1918
274.225	1950
274.685	1973
275.145	1951
275.605	1894
276.065	1943
276.526	1966
276.986	1990
277.446	1964
277.907	1970
278.367	1992
278.828	1994
279.288	1964
279.749	2033
280.209	2043
280.67	2025
281.131	2056
281.592	2078
282.052	2085
282.513	2153
282.974	2122
283.435	2131
283.896	2220
284.357	2213
284.818	2174
285.28	2139
285.741	2186
286.202	2124
286.663	2244
287.125	2241
287.586	2268
288.048	2370
288.509	2336
288.971	2357
289.432	2383
289.894	2359
290.356	2395
290.818	2329
291.279	2361
291.741	2408
292.203	2406
292.665	2381
293.127	2449
293.589	2418
294.051	2493
294.513	2466
294.976	2471
295.438	2506
295.9	2477
296.363	2524
296.825	2563
297.287	2612
297.75	2662
298.212	2607
298.675	2580
299.138	2660
299.6	2647
300.063	2632
300.526	2689
300.989	2795
301.452	2826
301.914	2773
302.377	2856
302.84	2805
303.304	2939
303.767	2996
304.23	3009
304.693	3002
305.156	2979
305.62	3055
306.083	3111
306.546	3143
307.01	3156
307.473	3188
307.937	3193
308.4	3196
308.864	3169
309.328	3224
309.792	3137
310.255	3234
310.719	3281
311.183	3274
311.647	3301
312.111	3320
312.575	3311
313.039	3380
313.503	3412
313.967	3402
314.432	3444
314.896	3376
315.36	3405
315.825	3462
316.289	3426
316.753	3514
317.218	3584
317.683	3528
318.147	3579
318.612	3584
319.076	3600
319.541	3589
320.006	3652
320.471	3613
320.936	3541
321.401	3549
321.866	3603
322.331	3599
322.796	3595
323.261	3638
323.726	3580
324.191	3540
324.656	3572
325.122	3585
325.587	3562
326.053	3597
326.518	3585
326.983	3559
327.449	3614
327.915	3621
328.38	3619
328.846	3625
329.312	3598
329.777	3669
330.243	3602
330.709	3513
331.175	3650
331.641	3650
332.107	3795
332.573	3871
333.039	3798
333.505	3750
333.972	3733
334.438	3927
334.904	3868
335.37	3880
335.837	3853
336.303	3849
336.77	3963
337.236	3934
337.703	3864
338.169	3992
338.636	3977
339.103	4029
339.569	4055
340.036	4031
340.503	3980
340.97	3985
341.437	4042
341.904	4124
342.371	4135
342.838	4108
343.305	4068
343.772	4075
344.24	3985
344.707	4024
345.174	4025
345.641	3959
346.109	3988
346.576	3971
347.044	3838
347.511	3940
347.979	3836
348.447	3980
348.914	3982
349.382	3903
349.85	3881
350.318	3900
350.785	3885
351.253	4030
351.721	3837
352.189	3977
352.657	3891
353.125	3831
353.594	3935
354.062	3981
354.53	3913
354.998	3885
355.466	3887
355.935	3921
356.403	3810
356.872	3845
357.34	3972
357.809	3854
358.277	3978
358.746	3964
359.215	4013
359.683	3959
360.152	4070
360.621	4033
361.09	4085
361.559	4106
362.028	4077
362.497	4131
362.966	4053
363.435	4053
363.904	4338
364.373	4146
364.842	4146
365.312	4234
365.781	4145
366.25	4245
366.72	4226
367.189	4272
367.658	4268
368.128	4345
368.598	4329
369.067	4364
369.537	4298
370.007	4305
370.476	4346
370.946	4222
371.416	4391
371.886	4199
372.356	4247
372.826	4288
373.296	4263
373.766	4235
374.236	4250
374.706	4265
375.176	4189
375.647	4215
376.117	4177
376.587	4234
377.058	4309
377.528	4275
377.998	4312
378.469	4341
378.94	4390
379.41	4286
379.881	4311
380.351	4275
380.822	4231
381.293	4266
381.764	4258
382.235	4221
382.706	4116
383.177	4041
383.648	4357
384.119	4257
384.59	4235
385.061	4210
385.532	4212
386.003	4317
386.474	4093
386.946	4129
387.417	4356
387.888	4191
388.36	4084
388.831	4150
389.303	4241
389.774	4081
390.246	4294
390.718	4183
391.189	4050
391.661	4345
392.133	4104
392.605	4141
393.077	3993
393.549	4269
394.021	4471
394.493	4183
394.965	4234
395.437	4063
395.909	4055
396.381	4383
396.853	3993
397.325	4478
397.798	4252
398.27	4145
398.743	4314
399.215	4293
399.687	4407
400.16	4539
400.633	4257
401.105	3917
401.578	4099
402.051	4158
402.523	4090
402.996	4131
403.469	4191
403.942	3951
404.415	4135
404.888	4138
405.361	4049
405.834	3918
406.307	3993
406.78	3926
407.253	4178
407.726	3996
408.199	4129
408.673	4061
409.146	3808
409.619	3920
410.093	3816
410.566	4003
411.04	3801
411.513	3809
411.987	3853
412.461	3868
412.934	3831
413.408	3760
413.882	3643
414.356	3767
414.829	3765
415.303	3869
415.777	3732
416.251	3732
416.725	3841
417.199	3475
417.673	3634
418.148	3497
418.622	3814
419.096	3526
419.57	3773
420.045	3633
420.519	3642
420.993	3764
421.468	3668
421.942	3651
422.417	3678
422.891	3815
423.366	3724
423.841	3741
424.315	3617
424.79	3760
425.265	3703
425.74	3508
426.215	3607
426.689	3560
427.164	3763
427.639	3651
428.114	3787
428.589	3854
429.065	3793
429.54	3678
430.015	3922
430.49	3569
430.965	3692
431.441	3704
431.916	3673
432.392	3605
432.867	3601
433.342	3642
433.818	3583
434.294	3582
434.769	3727
435.245	3554
435.721	3717
436.196	3786
436.672	3537
437.148	3531
437.624	3718
438.1	3905
438.576	3592
439.052	3711
439.528	3782
440.004	3547
440.48	3562
440.956	3615
441.432	3574
441.908	3778
442.385	3750
442.861	3591
443.337	3694
443.814	3548
444.29	3607
444.767	3649
445.243	3784
445.72	3548
446.196	3775
446.673	3817
447.15	3584
447.626	3728
448.103	3628
448.58	3607
449.057	3497
449.534	3715
450.01	3627
450.487	3551
450.964	3421
451.442	3766
451.919	3366
452.396	3446
452.873	3500.5
453.35	3555
453.827	3716
454.305	3399
454.782	3285
455.259	3175
455.737	3433
456.214	3241
456.692	3262
457.169	3291
457.647	3274
458.124	3322
458.602	3442
459.08	3250
459.557	3371
460.035	3422
460.513	3283
460.991	3418
461.469	3217
461.947	3303
462.425	3313
462.903	3230
463.381	3336
463.859	3383
464.337	3354
464.815	3420
465.293	3325
465.772	3285
466.25	3277
466.728	3518
467.207	3254
467.685	3276
468.164	3247
468.642	3114
469.121	3190
469.599	3168
470.078	3170
470.556	3049
471.035	3058
471.514	3077
471.993	3159
472.471	3007
472.95	3215
473.429	3177
473.908	3263
474.387	3395
474.866	3357
475.345	3544
475.824	3389
476.303	3456
476.782	3502
477.262	3505
477.741	3583
478.22	3584
478.7	3594
479.179	3635
479.658	3656
480.138	3682
480.617	3756
481.097	3652
481.576	3743
482.056	3782
482.535	3883
483.015	3930
483.495	4113
483.975	4121
484.454	4245
484.934	4241
485.414	4179
485.894	4260
486.374	4269
486.854	4247
487.334	4218
487.814	4166
488.294	4104
488.774	4000
489.254	3908
489.735	3758
490.215	3735
490.695	3686
491.176	3690
491.656	3532
492.136	3707
492.617	3630
493.097	3653
493.578	3608
494.058	3729
494.539	3744
495.02	3667
495.5	3628
495.981	3720
496.462	3698
496.943	3625
497.423	3646
497.904	3616
498.385	3552
498.866	3566
499.347	3574
499.828	3555
500.309	3404
500.79	3548
501.271	3555
501.753	3592
502.234	3407
502.715	3584
503.196	3510
503.678	3552
504.159	3588
504.64	3498
505.122	3464
505.603	3504
506.085	3486
506.566	3414
507.048	3448
507.53	3437
508.011	3258
508.493	3420
508.975	3355
509.457	3356
509.938	3309
510.42	3332
510.902	3315
511.384	3355
511.866	3346
512.348	3291
512.83	3216
513.312	3222
513.794	3247
514.276	3132
514.759	3169
515.241	3107
515.723	3150
516.206	3041
516.688	3023
517.17	3090
517.653	3008
518.135	2987
518.618	3033
519.1	2981
519.583	2918
520.065	2897
520.548	2875
521.031	2864
521.513	2778
521.996	2849
522.479	2781
522.962	2836
523.445	2739
523.927	2752
524.41	2760
524.893	2719
525.376	2678
525.859	2665
526.343	2693
526.826	2643
527.309	2583
527.792	2672
528.275	2598
528.759	2612
529.242	2591
529.725	2551
530.209	2515
530.692	2509
531.175	2542
531.659	2534
532.142	2520
532.626	2541
533.11	2525
533.593	2526
534.077	2497
534.561	2531
535.044	2505
535.528	2532
536.012	2527
536.496	2484
536.98	2554
537.464	2523
537.948	2480
538.432	2512
538.916	2495
539.4	2524
539.884	2517
540.368	2488
540.852	2556
541.336	2492
541.821	2533
542.305	2537
542.789	2511
543.274	2533
543.758	2514
544.243	2499
544.727	2583
545.211	2574
545.696	2627
546.181	2640
546.665	2639
547.15	2567
547.635	2616
548.119	2551
548.604	2566
549.089	2609
549.574	2627
550.059	2581
550.543	2617
551.028	2592
551.513	2524
551.998	2584
552.483	2630
552.968	2659
553.454	2634
553.939	2765
554.424	2720
554.909	2715
555.394	2725
555.88	2721
556.365	2699
556.85	2687
557.336	2732
557.821	2722
558.307	2803
558.792	2769
559.278	2840
559.763	2834
560.249	2867
560.735	2946
561.22	2993
561.706	3047
562.192	3056
562.677	3095
563.163	3086
563.649	3084
564.135	3101
564.621	3110
565.107	3102
565.593	3182
566.079	3217
566.565	3315
567.051	3393
567.537	3540
568.023	3665
568.51	3884
568.996	4023
569.482	4208
569.968	4361
570.455	4541
570.941	4776
571.428	4884
571.914	5069
572.4	5258
572.887	5387
573.374	5428
573.86	5526
574.347	5577
574.833	5758
575.32	5974
575.807	6135
576.294	6106
576.78	6246
577.267	6252
577.754	6195
578.241	6421
578.728	6643
579.215	6883
579.702	6934.5
580.189	6986
580.676	6695
581.163	6649
581.65	6708
582.137	6819
582.625	6842.5
583.112	6866
583.599	6772
584.086	6690
584.574	6558.5
585.061	6427
585.548	6431
586.036	6286
586.523	6359
587.011	6232
587.498	6105
587.986	5918
588.474	5602
588.961	5640
589.449	5522
589.937	5474
590.424	5503
590.912	5552
591.4	5553
591.888	5604
592.376	5651
592.864	5512
593.352	5637
593.84	5596
594.328	5676
594.816	5753
595.304	5590
595.792	5566
596.28	5557
596.768	5767
597.256	5874
597.745	5936
598.233	6010
598.721	6063
599.209	6145
599.698	6150
600.186	6113
600.675	6196
601.163	6133
601.652	6118
602.14	6048
602.629	5964
603.117	5852
603.606	5917
604.095	6006
604.583	5960
605.072	6090
605.561	6269
606.05	6050
606.539	6114
607.028	6016
607.516	5943
608.005	6033
608.494	5785
608.983	5635
609.472	5578
609.961	5494
610.451	5410
610.94	5238
611.429	5400
611.918	5392
612.407	5345
612.897	5371
613.386	5397
613.875	5426
614.365	5256
614.854	5370
615.343	5183
615.833	5181
616.322	5114
616.812	4994
617.301	4866
617.791	4756
618.281	4544
618.77	4560
619.26	4542
619.75	4398
620.24	4407
620.729	4395
621.219	4423.5
621.709	4452
622.199	4408
622.689	4460
623.179	4375
623.669	4323
624.159	4379
624.649	4358
625.139	4239
625.629	4203
626.119	4230
626.609	4142
627.099	4068
627.59	4004
628.08	3979
628.57	3908
629.061	3871
629.551	3805
630.041	3736
630.532	3735
631.022	3672
631.513	3566
632.003	3505
632.494	3415
632.984	3501
633.475	3445
633.966	3455
634.456	3445
634.947	3460
635.438	3428
635.929	3349
636.419	3421
636.91	3458
637.401	3401
637.892	3449
638.383	3368
638.874	3324
639.365	3285
639.856	3339
640.347	3286
640.838	3289
641.329	3189
641.82	3293
642.311	3280
642.803	3325
643.294	3250
643.785	3307
644.277	3259
644.768	3317
645.259	3241
645.751	3383
646.242	3345
646.734	3439
647.225	3449
647.717	3441
648.208	3464
648.7	3547
649.191	3548
649.683	3603
650.175	3599
650.666	3553
651.158	3536
651.65	3603
652.142	4131
652.633	4864
653.125	5689
653.617	6333
654.109	6655
654.601	6790
655.093	7032
655.585	6962
656.077	7107
656.569	6952
657.061	6869
657.553	6564
658.046	5609
658.538	4832
659.03	4052
659.522	3851
660.015	3572
660.507	3495
660.999	3470
661.492	3487
661.984	3428
662.476	3428
662.969	3523
663.461	3483
663.954	3474
664.446	3501
664.939	3488
665.432	3527
665.924	3492
666.417	3511
666.91	3547
667.402	3501
667.895	3563
668.388	3606
668.881	3650
