Data from S030561_13-52-29-066.txt Node
Date: Thu Feb 22 13:52:29 GMT 2018
User: darren.whitaker
Spectrometer: S03056
Trigger mode: 0
Resolution mode: 1024 pixels
Integration Time (sec): 1.500000E0
Scans to average: 1
Nonlinearity correction enabled: false
Boxcar width: 0
Baseline correction enabled: true
XAxis mode: Wavelengths
Number of Pixels in Spectrum: 1024
>>>>>Begin Spectral Data<<<<<
184.595	36
185.045	4
185.495	31
185.945	37
186.395	-22
186.845	53
187.295	34
187.745	61
188.195	59
188.646	13
189.096	53
189.546	39
189.997	56
190.447	66
190.898	67
191.348	40
191.799	56
192.249	53
192.7	53
193.151	54
193.602	59
194.053	12
194.504	60
194.955	9
195.406	40
195.857	58
196.308	61
196.759	55
197.21	44
197.662	57
198.113	65
198.564	49
199.016	50
199.467	25
199.919	59
200.371	31
200.822	72
201.274	73
201.726	38
202.178	46
202.63	71
203.082	61
203.534	75
203.986	63
204.438	61
204.89	94
205.342	67
205.794	49
206.247	84
206.699	51
207.152	66
207.604	90
208.057	81
208.509	93
208.962	96
209.415	99
209.867	101
210.32	95
210.773	63
211.226	112
211.679	58
212.132	51
212.585	75
213.038	128
213.491	117
213.944	106
214.398	108
214.851	119
215.304	135
215.758	152
216.211	138
216.665	153
217.119	155
217.572	136
218.026	155
218.48	188
218.933	207
219.387	218
219.841	207
220.295	218
220.749	238
221.203	221
221.657	266
222.112	270
222.566	259
223.02	299
223.474	312
223.929	305
224.383	325
224.838	353
225.292	358
225.747	382
226.202	377
226.656	399
227.111	369
227.566	440
228.021	452
228.476	453
228.931	470
229.386	502
229.841	526
230.296	559
230.751	581
231.206	584
231.661	610
232.117	610
232.572	654
233.027	671
233.483	647
233.938	696
234.394	756
234.85	797
235.305	829
235.761	854
236.217	915
236.673	889
237.129	947
237.585	972
238.041	1037
238.497	1065
238.953	1106
239.409	1102
239.865	1186
240.321	1212
240.778	1239
241.234	1222
241.69	1259
242.147	1324
242.603	1367
243.06	1445
243.517	1502
243.973	1462
244.43	1465
244.887	1516
245.343	1533
245.8	1580
246.257	1597
246.714	1621
247.171	1668
247.628	1713
248.085	1734
248.543	1748
249	1746
249.457	1762
249.914	1771
250.372	1809
250.829	1823
251.287	1858
251.744	1870
252.202	1803
252.659	1954
253.117	1871
253.575	1910
254.033	1971
254.491	2002
254.948	1985
255.406	2036
255.864	2054
256.322	2055
256.78	2018
257.239	1955
257.697	2083
258.155	2023
258.613	2078
259.072	2103
259.53	2077
259.988	2047
260.447	2027
260.906	2024
261.364	2022
261.823	1992
262.281	2029
262.74	2022
263.199	2023
263.658	1995
264.117	1961
264.576	1946
265.035	1968
265.494	2019
265.953	2017
266.412	2014
266.871	1990
267.33	1970
267.79	1995
268.249	1974
268.708	1941
269.168	1952
269.627	1972
270.087	1963
270.546	1976
271.006	1969
271.466	1931
271.926	1943
272.385	1919
272.845	1976
273.305	2009
273.765	1929
274.225	1961
274.685	1990
275.145	1981
275.605	1903
276.065	1961
276.526	1978
276.986	1997
277.446	1973
277.907	1984
278.367	1995
278.828	2004
279.288	1963
279.749	2048
280.209	2050
280.67	2036
281.131	2062
281.592	2091
282.052	2089
282.513	2160
282.974	2126
283.435	2136
283.896	2221
284.357	2214
284.818	2169
285.28	2143
285.741	2186
286.202	2124
286.663	2244
287.125	2234
287.586	2265
288.048	2363
288.509	2334
288.971	2361
289.432	2381
289.894	2358
290.356	2384
290.818	2321
291.279	2358
291.741	2404
292.203	2401
292.665	2375
293.127	2436
293.589	2403
294.051	2479
294.513	2445
294.976	2452
295.438	2495
295.9	2463
296.363	2499
296.825	2546
297.287	2592
297.75	2641
298.212	2584
298.675	2554
299.138	2627
299.6	2625
300.063	2607
300.526	2654
300.989	2761
301.452	2810
301.914	2741
302.377	2826
302.84	2771
303.304	2907
303.767	2963
304.23	2968
304.693	2962
305.156	2942
305.62	3027
306.083	3075
306.546	3089
307.01	3116
307.473	3152
307.937	3146
308.4	3157
308.864	3128
309.328	3183
309.792	3100
310.255	3181
310.719	3238
311.183	3234
311.647	3258
312.111	3273
312.575	3268
313.039	3336
313.503	3376
313.967	3358
314.432	3388
314.896	3325
315.36	3353
315.825	3408
316.289	3373
316.753	3465
317.218	3538
317.683	3483
318.147	3527
318.612	3532
319.076	3547
319.541	3539
320.006	3600
320.471	3564
320.936	3484
321.401	3489
321.866	3550
322.331	3543
322.796	3535
323.261	3587
323.726	3529
324.191	3491
324.656	3514
325.122	3535
325.587	3522
326.053	3546
326.518	3538
326.983	3496
327.449	3553
327.915	3580
328.38	3563
328.846	3575
329.312	3536
329.777	3605
330.243	3546
330.709	3445
331.175	3587
331.641	3595
332.107	3729
332.573	3804
333.039	3740
333.505	3696
333.972	3677
334.438	3862
334.904	3808
335.37	3814
335.837	3787
336.303	3774
336.77	3893
337.236	3862
337.703	3796
338.169	3923
338.636	3905
339.103	3973
339.569	3968
340.036	3972
340.503	3910
340.97	3913
341.437	3974
341.904	4057
342.371	4065
342.838	4042
343.305	3996
343.772	4007
344.24	3918
344.707	3951
345.174	3949
345.641	3887
346.109	3917
346.576	3887
347.044	3763
347.511	3864
347.979	3769
348.447	3900
348.914	3898
349.382	3828
349.85	3796
350.318	3834
350.785	3815
351.253	3955
351.721	3756
352.189	3899
352.657	3813
353.125	3757
353.594	3864
354.062	3897
354.53	3836
354.998	3809
355.466	3807
355.935	3839
356.403	3741
356.872	3767
357.34	3884
357.809	3784
358.277	3897
358.746	3878
359.215	3940
359.683	3885
360.152	3990
360.621	3941
361.09	4003
361.559	4028
362.028	3989
362.497	4049
362.966	3967
363.435	3964
363.904	4254
364.373	4056
364.842	4049
365.312	4152
365.781	4056
366.25	4159
366.72	4137
367.189	4184
367.658	4165
368.128	4263
368.598	4237
369.067	4271
369.537	4208
370.007	4212
370.476	4259
370.946	4128
371.416	4291
371.886	4100
372.356	4160
372.826	4198
373.296	4155
373.766	4155
374.236	4159
374.706	4181
375.176	4096
375.647	4129
376.117	4081
376.587	4127
377.058	4216
377.528	4179
377.998	4215
378.469	4246
378.94	4290
379.41	4202
379.881	4213
380.351	4179
380.822	4129
381.293	4162
381.764	4151
382.235	4126
382.706	4011
383.177	3947
383.648	4248
384.119	4161
384.59	4127
385.061	4096
385.532	4117
386.003	4213
386.474	3986
386.946	4028
387.417	4261
387.888	4087
388.36	3987
388.831	4044
389.303	4145
389.774	3979
390.246	4199
390.718	4094
391.189	3959
391.661	4242
392.133	4002
392.605	4048
393.077	3886
393.549	4178
394.021	4367
394.493	4080
394.965	4133
395.437	3983
395.909	3971
396.381	4286
396.853	3903
397.325	4377
397.798	4149
398.27	4048
398.743	4210
399.215	4183
399.687	4292
400.16	4424
400.633	4153
401.105	3826
401.578	4006
402.051	4050
402.523	3999
402.996	4021
403.469	4092
403.942	3853
404.415	4041
404.888	4039
405.361	3952
405.834	3835
406.307	3900
406.78	3823
407.253	4072
407.726	3884
408.199	4022
408.673	3952
409.146	3712
409.619	3819
410.093	3718
410.566	3908
411.04	3703
411.513	3703
411.987	3759
412.461	3774
412.934	3738
413.408	3671
413.882	3559
414.356	3677
414.829	3675
415.303	3767
415.777	3635
416.251	3641
416.725	3752
417.199	3385
417.673	3547
418.148	3412
418.622	3719
419.096	3429
419.57	3672
420.045	3552
420.519	3548
420.993	3666
421.468	3565
421.942	3565
422.417	3589
422.891	3724
423.366	3627
423.841	3647
424.315	3527
424.79	3668
425.265	3604
425.74	3427
426.215	3512
426.689	3468
427.164	3668
427.639	3557
428.114	3701
428.589	3756
429.065	3706
429.54	3593
430.015	3826
430.49	3474
430.965	3591
431.441	3609
431.916	3575
432.392	3520
432.867	3503
433.342	3552
433.818	3490
434.294	3494
434.769	3631
435.245	3465
435.721	3618
436.196	3687
436.672	3456
437.148	3449
437.624	3628.5
438.1	3808
438.576	3494
439.052	3612
439.528	3689
440.004	3463
440.48	3474
440.956	3517
441.432	3482
441.908	3685
442.385	3648
442.861	3497
443.337	3606
443.814	3456
444.29	3504
444.767	3563
445.243	3698
445.72	3467
446.196	3687
446.673	3715
447.15	3491
447.626	3636
448.103	3537
448.58	3520
449.057	3409
449.534	3626
450.01	3539
450.487	3469
450.964	3339
451.442	3669
451.919	3281
452.396	3360
452.873	3410.5
453.35	3461
453.827	3627
454.305	3306
454.782	3216
455.259	3097
455.737	3350
456.214	3162
456.692	3180
457.169	3204
457.647	3198
458.124	3251
458.602	3356
459.08	3174
459.557	3286
460.035	3334
460.513	3213
460.991	3339
461.469	3138
461.947	3229
462.425	3233
462.903	3156
463.381	3269
463.859	3299
464.337	3276
464.815	3345
465.293	3252
465.772	3213
466.25	3196
466.728	3443
467.207	3178
467.685	3206
468.164	3167
468.642	3044
469.121	3118
469.599	3094
470.078	3095
470.556	2983
471.035	2985
471.514	3010
471.993	3086
472.471	2936
472.95	3141
473.429	3101
473.908	3185
474.387	3314
474.866	3279
475.345	3461
475.824	3312
476.303	3376
476.782	3428
477.262	3425
477.741	3517
478.22	3517
478.7	3518
479.179	3557
479.658	3576
480.138	3597
480.617	3672
481.097	3571
481.576	3664
482.056	3694
482.535	3798
483.015	3834
483.495	4034
483.975	4032
484.454	4165
484.934	4153
485.414	4104
485.894	4170
486.374	4170
486.854	4162
487.334	4131
487.814	4080
488.294	4011
488.774	3909
489.254	3842
489.735	3690
490.215	3661
490.695	3610
491.176	3623
491.656	3453
492.136	3636
492.617	3555
493.097	3579
493.578	3550
494.058	3659
494.539	3676
495.02	3599
495.5	3561
495.981	3661
496.462	3630
496.943	3565
497.423	3579
497.904	3549
498.385	3492
498.866	3498
499.347	3513
499.828	3493
500.309	3352
500.79	3485
501.271	3499
501.753	3532
502.234	3355
502.715	3529
503.196	3451
503.678	3506
504.159	3534
504.64	3441
505.122	3405
505.603	3439
506.085	3429
506.566	3368
507.048	3397
507.53	3381
508.011	3210
508.493	3379
508.975	3311
509.457	3302
509.938	3264
510.42	3276
510.902	3266
511.384	3309
511.866	3299
512.348	3240
512.83	3169
513.312	3186
513.794	3204
514.276	3092
514.759	3131
515.241	3070
515.723	3102
516.206	3000
516.688	2983
517.17	3058
517.653	2969
518.135	2950
518.618	3001
519.1	2944
519.583	2879
520.065	2870
520.548	2843
521.031	2832
521.513	2742
521.996	2813
522.479	2758
522.962	2805
523.445	2707
523.927	2716
524.41	2731
524.893	2693
525.376	2653
525.859	2638
526.343	2664
526.826	2618
527.309	2554
527.792	2652
528.275	2577
528.759	2599
529.242	2565
529.725	2525
530.209	2496
530.692	2488
531.175	2524
531.659	2522
532.142	2506
532.626	2521
533.11	2511
533.593	2508
534.077	2475
534.561	2512
535.044	2482
535.528	2528
536.012	2513
536.496	2469
536.98	2536
537.464	2515
537.948	2474
538.432	2494
538.916	2476
539.4	2521
539.884	2512
540.368	2474
540.852	2548
541.336	2481
541.821	2526
542.305	2522
542.789	2491
543.274	2523
543.758	2510
544.243	2492
544.727	2578
545.211	2566
545.696	2614
546.181	2631
546.665	2636
547.15	2559
547.635	2612
548.119	2542
548.604	2557
549.089	2607
549.574	2619
550.059	2571
550.543	2606
551.028	2588
551.513	2517
551.998	2577
552.483	2624
552.968	2647
553.454	2620
553.939	2757
554.424	2715
554.909	2703
555.394	2716
555.88	2712
556.365	2699
556.85	2682
557.336	2725
557.821	2711
558.307	2784
558.792	2765
559.278	2831
559.763	2831
560.249	2863
560.735	2936
561.22	2979
561.706	3028
562.192	3038
562.677	3091
563.163	3082
563.649	3071
564.135	3087
564.621	3102
565.107	3102
565.593	3173
566.079	3213
566.565	3307
567.051	3385
567.537	3529
568.023	3644
568.51	3866
568.996	3998
569.482	4185
569.968	4341
570.455	4523
570.941	4736
571.428	4855
571.914	5043
572.4	5234
572.887	5353
573.374	5394
573.86	5495
574.347	5547
574.833	5738
575.32	5932
575.807	6094
576.294	6074
576.78	6215
577.267	6211
577.754	6161
578.241	6376
578.728	6600
579.215	6827
579.702	6881.5
580.189	6936
580.676	6662
581.163	6608
581.65	6670
582.137	6782
582.625	6809.5
583.112	6837
583.599	6727
584.086	6649
584.574	6521.5
585.061	6394
585.548	6390
586.036	6256
586.523	6340
587.011	6207
587.498	6074
587.986	5892
588.474	5588
588.961	5605
589.449	5498
589.937	5456
590.424	5480
590.912	5530
591.4	5541
591.888	5578
592.376	5628
592.864	5484
593.352	5615
593.84	5587
594.328	5651
594.816	5716
595.304	5572
595.792	5538
596.28	5549
596.768	5738
597.256	5856
597.745	5911
598.233	5994
598.721	6037
599.209	6121
599.698	6128
600.186	6084
600.675	6168
601.163	6104
601.652	6081
602.14	6016
602.629	5960
603.117	5839
603.606	5890
604.095	5995
604.583	5947
605.072	6070
605.561	6246
606.05	6029
606.539	6092
607.028	5986
607.516	5930
608.005	6019
608.494	5759
608.983	5635
609.472	5567
609.961	5479
610.451	5413
610.94	5243
611.429	5397
611.918	5384
612.407	5332
612.897	5358
613.386	5384
613.875	5417
614.365	5255
614.854	5373
615.343	5190
615.833	5172
616.322	5101
616.812	4984
617.301	4867
617.791	4758
618.281	4534
618.77	4566
619.26	4541
619.75	4410
620.24	4408
620.729	4400
621.219	4429.5
621.709	4459
622.199	4410
622.689	4469
623.179	4375
623.669	4327
624.159	4378
624.649	4359
625.139	4236
625.629	4203
626.119	4239
626.609	4151
627.099	4079
627.59	4012
628.08	3976
628.57	3914
629.061	3885
629.551	3815
630.041	3748
630.532	3727
631.022	3682
631.513	3568
632.003	3509
632.494	3425
632.984	3510
633.475	3452
633.966	3459
634.456	3453
634.947	3464
635.438	3446
635.929	3362
636.419	3444
636.91	3458
637.401	3409
637.892	3465
638.383	3371
638.874	3341
639.365	3303
639.856	3360
640.347	3300
640.838	3303
641.329	3195
641.82	3307
642.311	3284
642.803	3333
643.294	3263
643.785	3321
644.277	3262
644.768	3327
645.259	3252
645.751	3401
646.242	3351
646.734	3448
647.225	3460
647.717	3447
648.208	3481
648.7	3560
649.191	3563
649.683	3620
650.175	3625
650.666	3578
651.158	3554
651.65	3615
652.142	4136
652.633	4873
653.125	5707
653.617	6338
654.109	6661
654.601	6787
655.093	7001
655.585	6966
656.077	7124
656.569	6958
657.061	6892
657.553	6589
658.046	5629
658.538	4857
659.03	4085
659.522	3883
660.015	3586
660.507	3497
660.999	3493
661.492	3499
661.984	3436
662.476	3448
662.969	3544
663.461	3500
663.954	3498
664.446	3531
664.939	3501
665.432	3539
665.924	3514
666.417	3533
666.91	3558
667.402	3526
667.895	3569
668.388	3611
668.881	3652
