Data from S030561_13-51-13-854.txt Node
Date: Thu Feb 22 13:51:13 GMT 2018
User: darren.whitaker
Spectrometer: S03056
Trigger mode: 0
Resolution mode: 1024 pixels
Integration Time (sec): 1.500000E0
Scans to average: 1
Nonlinearity correction enabled: false
Boxcar width: 0
Baseline correction enabled: true
XAxis mode: Wavelengths
Number of Pixels in Spectrum: 1024
>>>>>Begin Spectral Data<<<<<
184.595	37
185.045	5
185.495	29
185.945	37
186.395	-19
186.845	46
187.295	27
187.745	60
188.195	55
188.646	5
189.096	48
189.546	39
189.997	54
190.447	63
190.898	61
191.348	40
191.799	53
192.249	49
192.7	52
193.151	52
193.602	51
194.053	10
194.504	51
194.955	14
195.406	35
195.857	56
196.308	53
196.759	55
197.21	41
197.662	53
198.113	60
198.564	47
199.016	51
199.467	16
199.919	55
200.371	28
200.822	70
201.274	66
201.726	32
202.178	44
202.63	71
203.082	58
203.534	76
203.986	63
204.438	51
204.89	86
205.342	60
205.794	45
206.247	82
206.699	45
207.152	61
207.604	83
208.057	75
208.509	86
208.962	88.5
209.415	91
209.867	98
210.32	89
210.773	55
211.226	105
211.679	54
212.132	52
212.585	71
213.038	121
213.491	110
213.944	105
214.398	98
214.851	111
215.304	131
215.758	142
216.211	132
216.665	143
217.119	147
217.572	127
218.026	144
218.48	179
218.933	201
219.387	212
219.841	200
220.295	210
220.749	231
221.203	210
221.657	254
222.112	255
222.566	250
223.02	288
223.474	299
223.929	284
224.383	306
224.838	333
225.292	345
225.747	358
226.202	354
226.656	376
227.111	346
227.566	412
228.021	425
228.476	424
228.931	438
229.386	465
229.841	486
230.296	517
230.751	540
231.206	544
231.661	566
232.117	567
232.572	609
233.027	618
233.483	600
233.938	640
234.394	699
234.85	730
235.305	764
235.761	784
236.217	834
236.673	813
237.129	858
237.585	885
238.041	945
238.497	971
238.953	1014
239.409	1003
239.865	1081
240.321	1100
240.778	1123
241.234	1115
241.69	1133
242.147	1210
242.603	1244
243.06	1319
243.517	1355
243.973	1335
244.43	1336
244.887	1383
245.343	1389
245.8	1438
246.257	1443
246.714	1480
247.171	1528
247.628	1566
248.085	1588
248.543	1594
249	1601
249.457	1618
249.914	1619
250.372	1657
250.829	1683
251.287	1713
251.744	1731
252.202	1662
252.659	1806
253.117	1737
253.575	1774
254.033	1833
254.491	1863
254.948	1859
255.406	1902
255.864	1924
256.322	1927
256.78	1899
257.239	1847
257.697	1963
258.155	1911
258.613	1970
259.072	1991
259.53	1972
259.988	1951
260.447	1933
260.906	1936
261.364	1940
261.823	1911
262.281	1955
262.74	1946
263.199	1951
263.658	1922
264.117	1898
264.576	1880
265.035	1910
265.494	1962
265.953	1963
266.412	1961
266.871	1940
267.33	1930
267.79	1948
268.249	1928
268.708	1905
269.168	1917
269.627	1940
270.087	1934
270.546	1940
271.006	1941
271.466	1903
271.926	1916
272.385	1887
272.845	1950
273.305	1978
273.765	1905
274.225	1943
274.685	1966
275.145	1948
275.605	1883
276.065	1930
276.526	1954
276.986	1972
277.446	1957
277.907	1959
278.367	1979
278.828	1986
279.288	1951
279.749	2032
280.209	2037
280.67	2013
281.131	2045
281.592	2073
282.052	2081
282.513	2144
282.974	2105
283.435	2124
283.896	2207
284.357	2201
284.818	2160
285.28	2131
285.741	2178
286.202	2114
286.663	2231
287.125	2227
287.586	2258
288.048	2358
288.509	2324
288.971	2352
289.432	2388
289.894	2361
290.356	2386
290.818	2328
291.279	2358
291.741	2410
292.203	2408
292.665	2382
293.127	2444
293.589	2419
294.051	2492
294.513	2460
294.976	2466
295.438	2506
295.9	2477
296.363	2521
296.825	2559
297.287	2603
297.75	2659
298.212	2604
298.675	2571
299.138	2653
299.6	2638
300.063	2631
300.526	2684
300.989	2787
301.452	2830
301.914	2769
302.377	2861
302.84	2806
303.304	2935
303.767	2991
304.23	3011
304.693	2996
305.156	2973
305.62	3065
306.083	3106
306.546	3133
307.01	3150
307.473	3187
307.937	3186
308.4	3204
308.864	3163
309.328	3222
309.792	3145
310.255	3228
310.719	3278
311.183	3285
311.647	3297
312.111	3321
312.575	3317
313.039	3379
313.503	3413
313.967	3400
314.432	3437
314.896	3367
315.36	3406
315.825	3457
316.289	3423
316.753	3513
317.218	3578
317.683	3534
318.147	3578
318.612	3577
319.076	3596
319.541	3586
320.006	3647
320.471	3621
320.936	3539
321.401	3535
321.866	3599
322.331	3594
322.796	3585
323.261	3639
323.726	3579
324.191	3534
324.656	3565
325.122	3591
325.587	3569
326.053	3600
326.518	3589
326.983	3550
327.449	3615
327.915	3636
328.38	3616
328.846	3622
329.312	3611
329.777	3663
330.243	3599
330.709	3504
331.175	3653
331.641	3648
332.107	3791
332.573	3867
333.039	3799
333.505	3755
333.972	3726
334.438	3926
334.904	3878
335.37	3878
335.837	3852
336.303	3834
336.77	3965
337.236	3944
337.703	3860
338.169	3997
338.636	3966
339.103	4031
339.569	4030
340.036	4029
340.503	3990
340.97	3985
341.437	4037
341.904	4128
342.371	4143
342.838	4108
343.305	4070
343.772	4065
344.24	3993
344.707	4040
345.174	4023
345.641	3964
346.109	3979
346.576	3977
347.044	3844
347.511	3939
347.979	3837
348.447	3986
348.914	3974
349.382	3904
349.85	3871
350.318	3902
350.785	3893
351.253	4035
351.721	3833
352.189	3985
352.657	3894
353.125	3840
353.594	3942
354.062	3976
354.53	3920
354.998	3893
355.466	3887
355.935	3919
356.403	3823
356.872	3849
357.34	3964
357.809	3852
358.277	3989
358.746	3963
359.215	4016
359.683	3963
360.152	4071
360.621	4020
361.09	4089
361.559	4108
362.028	4076
362.497	4141
362.966	4060
363.435	4050
363.904	4343
364.373	4139
364.842	4139
365.312	4244
365.781	4147
366.25	4241
366.72	4236
367.189	4276
367.658	4267
368.128	4358
368.598	4328
369.067	4367
369.537	4299
370.007	4300
370.476	4355
370.946	4218
371.416	4396
371.886	4203
372.356	4253
372.826	4284
373.296	4252
373.766	4242
374.236	4256
374.706	4269
375.176	4193
375.647	4222
376.117	4175
376.587	4221
377.058	4307
377.528	4273
377.998	4314
378.469	4343
378.94	4391
379.41	4297
379.881	4315
380.351	4283
380.822	4226
381.293	4268
381.764	4250
382.235	4227
382.706	4110
383.177	4032
383.648	4355
384.119	4262
384.59	4230
385.061	4198
385.532	4208
386.003	4327
386.474	4091
386.946	4131
387.417	4352
387.888	4189
388.36	4090
388.831	4154
389.303	4254
389.774	4080
390.246	4302
390.718	4184
391.189	4052
391.661	4347
392.133	4093
392.605	4139
393.077	3991
393.549	4269
394.021	4469
394.493	4180
394.965	4237
395.437	4075
395.909	4069
396.381	4383
396.853	3997
397.325	4475
397.798	4258
398.27	4151
398.743	4307
399.215	4297
399.687	4399
400.16	4546
400.633	4247
401.105	3925
401.578	4099
402.051	4145
402.523	4103
402.996	4129
403.469	4188
403.942	3948
404.415	4140
404.888	4148
405.361	4049
405.834	3932
406.307	3995
406.78	3924
407.253	4176
407.726	3990
408.199	4126
408.673	4062
409.146	3812
409.619	3921
410.093	3814
410.566	4007
411.04	3798
411.513	3811
411.987	3859
412.461	3869
412.934	3830
413.408	3754
413.882	3639
414.356	3769
414.829	3767
415.303	3873
415.777	3736
416.251	3737
416.725	3836
417.199	3472
417.673	3643
418.148	3503
418.622	3812
419.096	3521
419.57	3765
420.045	3632
420.519	3639
420.993	3764
421.468	3666
421.942	3653
422.417	3674
422.891	3819
423.366	3730
423.841	3741
424.315	3610
424.79	3755
425.265	3694
425.74	3513
426.215	3609
426.689	3566
427.164	3759
427.639	3650
428.114	3786
428.589	3844
429.065	3794
429.54	3684
430.015	3930
430.49	3568
430.965	3697
431.441	3703
431.916	3663
432.392	3613
432.867	3590
433.342	3635
433.818	3593
434.294	3585
434.769	3730
435.245	3557
435.721	3726
436.196	3779
436.672	3546
437.148	3540
437.624	3722
438.1	3904
438.576	3595
439.052	3703
439.528	3789
440.004	3552
440.48	3565
440.956	3621
441.432	3570
441.908	3765
442.385	3757
442.861	3595
443.337	3693
443.814	3539
444.29	3599
444.767	3650
445.243	3789
445.72	3555
446.196	3767
446.673	3820
447.15	3577
447.626	3734
448.103	3624
448.58	3602
449.057	3498
449.534	3716
450.01	3615
450.487	3557
450.964	3420
451.442	3758
451.919	3364
452.396	3437
452.873	3493
453.35	3549
453.827	3710
454.305	3389
454.782	3283
455.259	3182
455.737	3434
456.214	3244
456.692	3260
457.169	3279
457.647	3276
458.124	3328
458.602	3439
459.08	3252
459.557	3372
460.035	3416
460.513	3293
460.991	3424
461.469	3211
461.947	3307
462.425	3313
462.903	3242
463.381	3352
463.859	3383
464.337	3349
464.815	3425
465.293	3329
465.772	3284
466.25	3268
466.728	3524
467.207	3254
467.685	3287
468.164	3245
468.642	3118
469.121	3206
469.599	3164
470.078	3173
470.556	3043
471.035	3063
471.514	3080
471.993	3161
472.471	3007
472.95	3206
473.429	3171
473.908	3269
474.387	3394
474.866	3356
475.345	3541
475.824	3387
476.303	3442
476.782	3502
477.262	3498
477.741	3593
478.22	3581
478.7	3600
479.179	3638
479.658	3656
480.138	3683
480.617	3749
481.097	3654
481.576	3740
482.056	3778
482.535	3873
483.015	3921
483.495	4125
483.975	4124
484.454	4252
484.934	4240
485.414	4181
485.894	4265
486.374	4262
486.854	4250
487.334	4218
487.814	4159
488.294	4102
488.774	3998
489.254	3913
489.735	3763
490.215	3739
490.695	3680
491.176	3680
491.656	3540
492.136	3705
492.617	3625
493.097	3648
493.578	3607
494.058	3725
494.539	3748
495.02	3654
495.5	3627
495.981	3727
496.462	3702
496.943	3623
497.423	3644
497.904	3624
498.385	3549
498.866	3557
499.347	3577
499.828	3561
500.309	3411
500.79	3536
501.271	3558
501.753	3587
502.234	3414
502.715	3580
503.196	3513
503.678	3554
504.159	3583
504.64	3497
505.122	3459
505.603	3490
506.085	3482
506.566	3426
507.048	3446
507.53	3438
508.011	3253
508.493	3429
508.975	3348
509.457	3352
509.938	3309
510.42	3320
510.902	3317
511.384	3349
511.866	3338
512.348	3280
512.83	3215
513.312	3225
513.794	3246
514.276	3122
514.759	3167
515.241	3111
515.723	3145
516.206	3034
516.688	3022
517.17	3088
517.653	3008
518.135	2981
518.618	3034
519.1	2985
519.583	2912
520.065	2892
520.548	2871
521.031	2873
521.513	2778
521.996	2841
522.479	2778
522.962	2820
523.445	2734
523.927	2744
524.41	2762
524.893	2717
525.376	2686
525.859	2661
526.343	2692
526.826	2633
527.309	2573
527.792	2668
528.275	2596
528.759	2618
529.242	2586
529.725	2553
530.209	2515
530.692	2501
531.175	2539
531.659	2533
532.142	2523
532.626	2531
533.11	2525
533.593	2526
534.077	2490
534.561	2529
535.044	2499
535.528	2526
536.012	2524
536.496	2476
536.98	2547
537.464	2520
537.948	2481
538.432	2509
538.916	2484
539.4	2521
539.884	2517
540.368	2479
540.852	2551
541.336	2490
541.821	2529
542.305	2536
542.789	2499
543.274	2531
543.758	2506
544.243	2493
544.727	2582
545.211	2569
545.696	2607
546.181	2640
546.665	2629
547.15	2560
547.635	2622
548.119	2544
548.604	2559
549.089	2604
549.574	2629
550.059	2581
550.543	2614
551.028	2588
551.513	2524
551.998	2582
552.483	2631
552.968	2654
553.454	2627
553.939	2763
554.424	2716
554.909	2710
555.394	2722
555.88	2715
556.365	2702
556.85	2673
557.336	2726
557.821	2705
558.307	2797
558.792	2764
559.278	2847
559.763	2823
560.249	2861
560.735	2940
561.22	2991
561.706	3037
562.192	3045
562.677	3083
563.163	3092
563.649	3080
564.135	3097
564.621	3099
565.107	3107
565.593	3175
566.079	3214
566.565	3313
567.051	3393
567.537	3544
568.023	3654
568.51	3878
568.996	4003
569.482	4201
569.968	4356
570.455	4537
570.941	4760
571.428	4885
571.914	5064
572.4	5265
572.887	5378
573.374	5412
573.86	5519
574.347	5575
574.833	5756
575.32	5965
575.807	6126
576.294	6115
576.78	6245
577.267	6241
577.754	6186
578.241	6418
578.728	6635
579.215	6870
579.702	6921
580.189	6972
580.676	6692
581.163	6636
581.65	6706
582.137	6816
582.625	6842
583.112	6868
583.599	6752
584.086	6677
584.574	6549.5
585.061	6422
585.548	6427
586.036	6274
586.523	6351
587.011	6215
587.498	6096
587.986	5912
588.474	5603
588.961	5644
589.449	5521
589.937	5467
590.424	5508
590.912	5543
591.4	5548
591.888	5606
592.376	5645
592.864	5501
593.352	5629
593.84	5592
594.328	5669
594.816	5737
595.304	5585
595.792	5558
596.28	5547
596.768	5754
597.256	5870
597.745	5922
598.233	6007
598.721	6056
599.209	6139
599.698	6148
600.186	6102
600.675	6177
601.163	6115
601.652	6109
602.14	6036
602.629	5957
603.117	5847
603.606	5907
604.095	5999
604.583	5957
605.072	6077
605.561	6268
606.05	6039
606.539	6108
607.028	5997
607.516	5943
608.005	6022
608.494	5760
608.983	5638
609.472	5572
609.961	5486
610.451	5409
610.94	5235
611.429	5395
611.918	5387
612.407	5326
612.897	5355.5
613.386	5385
613.875	5415
614.365	5250
614.854	5375
615.343	5192
615.833	5171
616.322	5093
616.812	4984
617.301	4852
617.791	4742
618.281	4530
618.77	4553
619.26	4528
619.75	4392
620.24	4402
620.729	4392
621.219	4420.5
621.709	4449
622.199	4397
622.689	4460
623.179	4369
623.669	4324
624.159	4368
624.649	4345
625.139	4239
625.629	4199
626.119	4221
626.609	4135
627.099	4064
627.59	3996
628.08	3975
628.57	3903
629.061	3869
629.551	3800
630.041	3736
630.532	3721
631.022	3662
631.513	3558
632.003	3499
632.494	3404
632.984	3484
633.475	3444
633.966	3450
634.456	3440
634.947	3451
635.438	3431
635.929	3352
636.419	3425
636.91	3440
637.401	3387
637.892	3448
638.383	3355
638.874	3323
639.365	3278
639.856	3342
640.347	3283
640.838	3277
641.329	3172
641.82	3298
642.311	3266
642.803	3318
643.294	3257
643.785	3298
644.277	3267
644.768	3315
645.259	3229
645.751	3374
646.242	3330
646.734	3431
647.225	3448
647.717	3434
648.208	3462
648.7	3544
649.191	3545
649.683	3597
650.175	3600
650.666	3548
651.158	3532
651.65	3596
652.142	4126
652.633	4860
653.125	5676
653.617	6328
654.109	6631
654.601	6778
655.093	7009
655.585	6953
656.077	7114
656.569	6958
657.061	6852
657.553	6551
658.046	5601
658.538	4814
659.03	4046
659.522	3836
660.015	3558
660.507	3478
660.999	3462
661.492	3476
661.984	3414
662.476	3425
662.969	3514
663.461	3480
663.954	3476
664.446	3496
664.939	3479
665.432	3512
665.924	3490
666.417	3502
666.91	3540
667.402	3489
667.895	3560
668.388	3598
668.881	3635
