Data from S030561_13-52-21-387.txt Node
Date: Thu Feb 22 13:52:21 GMT 2018
User: darren.whitaker
Spectrometer: S03056
Trigger mode: 0
Resolution mode: 1024 pixels
Integration Time (sec): 1.500000E0
Scans to average: 1
Nonlinearity correction enabled: false
Boxcar width: 0
Baseline correction enabled: true
XAxis mode: Wavelengths
Number of Pixels in Spectrum: 1024
>>>>>Begin Spectral Data<<<<<
184.595	21
185.045	-11
185.495	11
185.945	21
186.395	-39
186.845	35
187.295	16
187.745	42
188.195	43
188.646	-10
189.096	35
189.546	21
189.997	36
190.447	45
190.898	51
191.348	21
191.799	39
192.249	34
192.7	30
193.151	34
193.602	34
194.053	-10
194.504	34
194.955	-8
195.406	18
195.857	39
196.308	31
196.759	31
197.21	27
197.662	37
198.113	37
198.564	21
199.016	26
199.467	-4
199.919	33
200.371	5
200.822	46
201.274	44
201.726	11
202.178	19
202.63	45
203.082	32
203.534	47
203.986	32
204.438	25
204.89	54
205.342	38
205.794	20
206.247	52
206.699	11
207.152	33
207.604	50
208.057	37
208.509	49
208.962	48
209.415	47
209.867	56
210.32	42
210.773	9
211.226	62
211.679	-2
212.132	-4
212.585	13
213.038	62
213.491	48
213.944	38
214.398	25
214.851	41
215.304	51
215.758	64
216.211	46
216.665	55
217.119	55
217.572	32
218.026	39
218.48	75
218.933	88
219.387	90
219.841	76
220.295	69
220.749	87
221.203	59
221.657	97
222.112	92
222.566	72
223.02	106
223.474	110
223.929	83
224.383	99
224.838	118
225.292	108
225.747	121
226.202	106
226.656	110
227.111	72
227.566	126
228.021	121
228.476	113
228.931	123
229.386	132
229.841	133
230.296	160
230.751	163
231.206	155
231.661	157
232.117	144
232.572	161
233.027	162
233.483	121
233.938	139
234.394	174
234.85	199
235.305	198
235.761	196
236.217	225
236.673	181
237.129	206
237.585	207
238.041	228
238.497	243
238.953	257
239.409	212
239.865	258
240.321	254
240.778	266
241.234	215
241.69	218
242.147	276
242.603	284
243.06	303
243.517	317
243.973	308
244.43	299
244.887	317
245.343	307
245.8	318
246.257	304
246.714	318
247.171	341
247.628	364
248.085	360
248.543	369
249	359
249.457	364
249.914	336
250.372	396
250.829	383
251.287	405
251.744	394
252.202	306
252.659	437
253.117	358
253.575	424
254.033	429
254.491	446
254.948	457
255.406	468
255.864	467
256.322	477
256.78	479
257.239	450
257.697	492
258.155	444
258.613	496
259.072	513
259.53	486
259.988	509
260.447	511
260.906	496
261.364	494
261.823	493
262.281	509
262.74	525
263.199	525
263.658	522
264.117	500
264.576	512
265.035	517
265.494	560
265.953	540
266.412	558
266.871	529
267.33	525
267.79	547
268.249	565
268.708	544
269.168	547
269.627	560
270.087	567
270.546	574
271.006	553
271.466	532
271.926	558
272.385	544
272.845	575
273.305	588
273.765	553
274.225	577
274.685	595
275.145	591
275.605	550
276.065	596
276.526	588
276.986	598
277.446	597
277.907	588
278.367	600
278.828	586
279.288	559
279.749	632
280.209	592
280.67	609
281.131	637
281.592	642
282.052	639
282.513	658
282.974	641
283.435	663
283.896	687
284.357	686
284.818	680
285.28	651
285.741	680
286.202	623
286.663	706
287.125	704
287.586	710
288.048	755
288.509	718
288.971	748
289.432	760
289.894	758
290.356	761
290.818	727
291.279	767
291.741	792
292.203	783
292.665	784
293.127	806
293.589	788
294.051	820
294.513	789
294.976	806
295.438	819
295.9	813
296.363	816
296.825	840
297.287	875
297.75	896
298.212	880
298.675	852
299.138	879
299.6	884
300.063	887
300.526	902
300.989	942
301.452	962
301.914	932
302.377	986
302.84	898
303.304	999
303.767	1031
304.23	1025
304.693	1030
305.156	1007
305.62	1055
306.083	1071
306.546	1071
307.01	1074
307.473	1096
307.937	1095
308.4	1101
308.864	1087
309.328	1114
309.792	1037
310.255	1098
310.719	1145
311.183	1105
311.647	1139
312.111	1138
312.575	1112
313.039	1167
313.503	1186
313.967	1181
314.432	1209
314.896	1118
315.36	1147
315.825	1171
316.289	1159
316.753	1216
317.218	1254
317.683	1224
318.147	1243
318.612	1240
319.076	1253
319.541	1232
320.006	1285
320.471	1273
320.936	1219
321.401	1235
321.866	1252
322.331	1260
322.796	1263
323.261	1277
323.726	1245
324.191	1244
324.656	1253
325.122	1263
325.587	1259
326.053	1258
326.518	1269
326.983	1245
327.449	1269
327.915	1267
328.38	1272
328.846	1286
329.312	1252
329.777	1281
330.243	1250
330.709	1152
331.175	1285
331.641	1285
332.107	1341
332.573	1372
333.039	1343
333.505	1322
333.972	1304
334.438	1384
334.904	1370
335.37	1367
335.837	1362
336.303	1322
336.77	1411
337.236	1386
337.703	1343
338.169	1414
338.636	1410
339.103	1431
339.569	1439
340.036	1429
340.503	1418
340.97	1398
341.437	1423
341.904	1467
342.371	1462
342.838	1474
343.305	1451
343.772	1429
344.24	1411
344.707	1433
345.174	1421
345.641	1419
346.109	1420
346.576	1396
347.044	1388
347.511	1414
347.979	1304
348.447	1425
348.914	1431
349.382	1401
349.85	1394
350.318	1372
350.785	1377
351.253	1450
351.721	1376
352.189	1424
352.657	1396
353.125	1379
353.594	1395
354.062	1425
354.53	1407
354.998	1404
355.466	1411
355.935	1412
356.403	1352
356.872	1342
357.34	1429
357.809	1390
358.277	1423
358.746	1422
359.215	1451
359.683	1430
360.152	1465
360.621	1446
361.09	1465
361.559	1484
362.028	1466
362.497	1497
362.966	1466
363.435	1445
363.904	1569
364.373	1503
364.842	1499
365.312	1547
365.781	1512
366.25	1533
366.72	1515
367.189	1547
367.658	1533
368.128	1586
368.598	1564
369.067	1570
369.537	1546
370.007	1577
370.476	1575
370.946	1541
371.416	1588
371.886	1503
372.356	1550
372.826	1568
373.296	1543
373.766	1539
374.236	1537
374.706	1566
375.176	1519
375.647	1537
376.117	1517
376.587	1494
377.058	1551
377.528	1564
377.998	1568
378.469	1584
378.94	1606
379.41	1572
379.881	1581
380.351	1544
380.822	1544
381.293	1537
381.764	1560
382.235	1526
382.706	1434
383.177	1479
383.648	1553
384.119	1564
384.59	1543
385.061	1517
385.532	1549
386.003	1586
386.474	1489
386.946	1510
387.417	1601
387.888	1532
388.36	1428
388.831	1521
389.303	1542
389.774	1473
390.246	1540
390.718	1542
391.189	1494
391.661	1589
392.133	1503
392.605	1533
393.077	1390
393.549	1556
394.021	1658
394.493	1534
394.965	1565
395.437	1482
395.909	1495
396.381	1615
396.853	1482
397.325	1664
397.798	1570
398.27	1509
398.743	1574
399.215	1593
399.687	1616
400.16	1655
400.633	1575
401.105	1431
401.578	1520
402.051	1542
402.523	1509
402.996	1521
403.469	1554
403.942	1447
404.415	1547
404.888	1527
405.361	1506
405.834	1467
406.307	1479
406.78	1415
407.253	1557
407.726	1439
408.199	1525
408.673	1503
409.146	1419
409.619	1455
410.093	1401
410.566	1478
411.04	1389
411.513	1376
411.987	1422
412.461	1433
412.934	1401
413.408	1400
413.882	1363
414.356	1391
414.829	1415
415.303	1420
415.777	1381
416.251	1405
416.725	1417
417.199	1287
417.673	1354
418.148	1291
418.622	1427
419.096	1318
419.57	1415
420.045	1376
420.519	1361
420.993	1411
421.468	1380
421.942	1369
422.417	1373
422.891	1432
423.366	1375
423.841	1408
424.315	1362
424.79	1413
425.265	1330
425.74	1329
426.215	1325
426.689	1319
427.164	1403
427.639	1381
428.114	1439
428.589	1438
429.065	1428
429.54	1401
430.015	1486
430.49	1329
430.965	1368
431.441	1400
431.916	1387
432.392	1357
432.867	1344
433.342	1381
433.818	1356
434.294	1352
434.769	1414
435.245	1330
435.721	1395
436.196	1420
436.672	1344
437.148	1342
437.624	1409.5
438.1	1477
438.576	1337
439.052	1384
439.528	1442
440.004	1344
440.48	1353
440.956	1350
441.432	1349
441.908	1433
442.385	1400
442.861	1284
443.337	1406
443.814	1342
444.29	1365
444.767	1389
445.243	1444
445.72	1358
446.196	1436
446.673	1463
447.15	1366
447.626	1412
448.103	1384
448.58	1377
449.057	1335
449.534	1407
450.01	1377
450.487	1357
450.964	1290
451.442	1440
451.919	1280
452.396	1305
452.873	1321.5
453.35	1338
453.827	1424
454.305	1302
454.782	1248
455.259	1192
455.737	1317
456.214	1243
456.692	1235
457.169	1250
457.647	1253
458.124	1281
458.602	1322
459.08	1245
459.557	1275
460.035	1303
460.513	1256
460.991	1315
461.469	1240
461.947	1253
462.425	1263
462.903	1237
463.381	1265
463.859	1305
464.337	1286
464.815	1312
465.293	1272
465.772	1249
466.25	1236
466.728	1354
467.207	1255
467.685	1270
468.164	1233
468.642	1169
469.121	1215
469.599	1199
470.078	1211
470.556	1161
471.035	1169
471.514	1169
471.993	1214
472.471	1141
472.95	1234
473.429	1229
473.908	1247
474.387	1316
474.866	1292
475.345	1363
475.824	1286
476.303	1310
476.782	1359
477.262	1328
477.741	1383
478.22	1375
478.7	1371
479.179	1394
479.658	1413
480.138	1417
480.617	1433
481.097	1409
481.576	1434
482.056	1439
482.535	1492
483.015	1481
483.495	1585
483.975	1578
484.454	1639
484.934	1619
485.414	1578
485.894	1650
486.374	1635
486.854	1634
487.334	1616
487.814	1612
488.294	1578
488.774	1525
489.254	1514
489.735	1453
490.215	1435
490.695	1412
491.176	1404
491.656	1290
492.136	1431
492.617	1376
493.097	1402
493.578	1385
494.058	1422
494.539	1447
495.02	1417
495.5	1380
495.981	1433
496.462	1425
496.943	1378
497.423	1404
497.904	1365
498.385	1370
498.866	1355
499.347	1362
499.828	1367
500.309	1257
500.79	1361
501.271	1376
501.753	1382
502.234	1254
502.715	1369
503.196	1346
503.678	1365
504.159	1383
504.64	1334
505.122	1286
505.603	1353
506.085	1338
506.566	1307
507.048	1317
507.53	1299
508.011	1204
508.493	1314
508.975	1284
509.457	1263
509.938	1237
510.42	1287
510.902	1256
511.384	1298
511.866	1289
512.348	1273
512.83	1243
513.312	1235
513.794	1264
514.276	1211
514.759	1215
515.241	1205
515.723	1216
516.206	1135
516.688	1134
517.17	1194
517.653	1166
518.135	1155
518.618	1163
519.1	1145
519.583	1091
520.065	1100
520.548	1114
521.031	1070
521.513	1026
521.996	1098
522.479	1067
522.962	1097
523.445	1052
523.927	1055
524.41	1056
524.893	1042
525.376	1025
525.859	1020
526.343	1031
526.826	995
527.309	959
527.792	1028
528.275	989
528.759	1014
529.242	987
529.725	973
530.209	944
530.692	922
531.175	970
531.659	944
532.142	960
532.626	977
533.11	965
533.593	943
534.077	947
534.561	970
535.044	967
535.528	965
536.012	973
536.496	937
536.98	973
537.464	964
537.948	946
538.432	947
538.916	961
539.4	971
539.884	957
540.368	939
540.852	985
541.336	950
541.821	975
542.305	981
542.789	957
543.274	955
543.758	962
544.243	968
544.727	1008
545.211	995
545.696	1019
546.181	1033
546.665	1019
547.15	973
547.635	1022
548.119	966
548.604	966
549.089	1011
549.574	1026
550.059	991
550.543	1017
551.028	1010
551.513	952
551.998	1003
552.483	1020
552.968	1039
553.454	1003
553.939	1086
554.424	1073
554.909	1058
555.394	1066
555.88	1064
556.365	1065
556.85	1052
557.336	1086
557.821	1076
558.307	1117
558.792	1094
559.278	1131
559.763	1102
560.249	1144
560.735	1172
561.22	1185
561.706	1220
562.192	1219
562.677	1238
563.163	1242
563.649	1246
564.135	1237
564.621	1246
565.107	1235
565.593	1270
566.079	1279
566.565	1335
567.051	1348
567.537	1416
568.023	1461
568.51	1561
568.996	1622
569.482	1677
569.968	1750
570.455	1824
570.941	1909
571.428	1963
571.914	2026
572.4	2113
572.887	2156
573.374	2178
573.86	2214
574.347	2241
574.833	2307
575.32	2365
575.807	2469
576.294	2466
576.78	2501
577.267	2499
577.754	2495
578.241	2584
578.728	2667
579.215	2737
579.702	2775
580.189	2813
580.676	2673
581.163	2677
581.65	2683
582.137	2754
582.625	2761.5
583.112	2769
583.599	2736
584.086	2683
584.574	2639
585.061	2595
585.548	2603
586.036	2539
586.523	2558
587.011	2528
587.498	2477
587.986	2395
588.474	2276
588.961	2287
589.449	2228
589.937	2175
590.424	2222
590.912	2250
591.4	2238
591.888	2259
592.376	2277
592.864	2199
593.352	2296
593.84	2277
594.328	2306
594.816	2340
595.304	2289
595.792	2260
596.28	2252
596.768	2337
597.256	2386
597.745	2404
598.233	2424
598.721	2427
599.209	2481
599.698	2502
600.186	2483
600.675	2495
601.163	2498
601.652	2485
602.14	2460
602.629	2420
603.117	2363
603.606	2402
604.095	2451
604.583	2397
605.072	2485
605.561	2559
606.05	2447
606.539	2477
607.028	2446
607.516	2391
608.005	2466
608.494	2368
608.983	2302
609.472	2303
609.961	2236
610.451	2227
610.94	2161
611.429	2241
611.918	2227
612.407	2212
612.897	2206
613.386	2200
613.875	2232
614.365	2161
614.854	2218
615.343	2115
615.833	2141
616.322	2101
616.812	2047
617.301	2011
617.791	1974
618.281	1847
618.77	1891
619.26	1877
619.75	1813
620.24	1815
620.729	1821
621.219	1834.5
621.709	1848
622.199	1819
622.689	1857
623.179	1793
623.669	1795
624.159	1798
624.649	1802
625.139	1724
625.629	1741
626.119	1757
626.609	1704
627.099	1687
627.59	1662
628.08	1647
628.57	1617
629.061	1615
629.551	1587
630.041	1559
630.532	1541
631.022	1539
631.513	1488
632.003	1459
632.494	1361
632.984	1463
633.475	1437
633.966	1433
634.456	1429
634.947	1440
635.438	1431
635.929	1352
636.419	1432
636.91	1427
637.401	1415
637.892	1438
638.383	1407
638.874	1375
639.365	1326
639.856	1405
640.347	1366
640.838	1361
641.329	1287
641.82	1369
642.311	1380
642.803	1392
643.294	1353
643.785	1388
644.277	1372
644.768	1365
645.259	1355
645.751	1409
646.242	1373
646.734	1441
647.225	1443
647.717	1435
648.208	1443
648.7	1494
649.191	1478
649.683	1508
650.175	1492
650.666	1495
651.158	1470
651.65	1494
652.142	1721
652.633	2044
653.125	2375
653.617	2604
654.109	2724
654.601	2794
655.093	2874
655.585	2839
656.077	2909
656.569	2849
657.061	2835
657.553	2718
658.046	2292
658.538	1983
659.03	1662
659.522	1627
660.015	1478
660.507	1455
660.999	1452
661.492	1466
661.984	1427
662.476	1440
662.969	1473
663.461	1463
663.954	1459
664.446	1460
664.939	1462
665.432	1487
665.924	1468
666.417	1482
666.91	1480
667.402	1484
667.895	1503
668.388	1504
668.881	1540
